SID,Trial,Repetition,Loc,Resp,Corr,RT,ImgName
1,1,1,4,1,1,1664.67,nonwex6.png
1,2,2,4,1,1,1228.73,nonwex2_4.png
1,3,1,2,1,1,1697.13,nonwex3.png
1,4,2,1,1,1,1421.39,nonwin2_10.png
1,5,2,2,1,1,1449.71,nonwin2_3.png
1,6,1,2,1,1,1221.87,nonwin12.png
1,7,1,4,1,1,1082.19,nonwin2.png
1,8,2,2,2,1,1494.45,nonwex2_12.png
1,9,2,1,1,1,1501.36,nonwin10.png
1,10,1,3,1,1,1185.55,nonwex8.png
1,11,2,2,2,1,1237.84,nonwex2_3.png
1,12,2,1,1,1,1530.11,nonwex2_1.png
1,13,1,4,1,1,1214.38,nonwex4.png
1,14,1,1,1,1,1170.62,nonwex2_11.png
1,15,1,3,1,1,1270.89,nonwin2_8.png
1,16,2,2,1,1,1267.11,nonwex2_2.png
1,17,2,4,1,1,1359.12,nonwex12.png
1,18,2,2,1,1,1051.61,nonwin5.png
1,19,1,2,1,1,999.89,nonwin8.png
1,20,1,4,1,1,1028.08,nonwex2.png
1,21,1,1,1,1,968.33,nonwin2_1.png
1,22,1,3,1,1,964.65,nonwex2_8.png
1,23,1,2,1,1,1040.93,nonwin2_4.png
1,24,2,3,1,1,1341.16,nonwin2_5.png
1,25,1,4,1,1,1209.41,nonwin2_2.png
1,26,1,1,1,1,1205.6,nonwex11.png
1,27,2,1,1,1,1233.9,nonwin4.png
1,28,1,2,1,1,1062.2,nonwin1.png
1,29,2,4,1,1,1122.44,nonwex1.png
1,30,2,1,1,1,886.65,nonwin11.png
1,31,2,4,2,1,826.94,nonwex10.png
1,32,2,3,2,1,1198.98,nonwin2_12.png
1,33,1,3,1,1,1059.37,nonwin7.png
1,34,1,3,1,1,1223.5,nonwex2_7.png
1,35,1,1,1,1,1819.95,nonwin2_7.png
1,36,2,3,1,1,1336.23,nonwin3.png
1,37,2,1,1,1,780.46,nonwin2_9.png
1,38,2,4,1,1,728.71,nonwin2_6.png
1,39,2,2,2,1,1060.91,nonwex5.png
1,40,1,3,1,1,769.22,nonwex2_5.png
1,41,2,3,2,1,925.42,nonwex7.png
1,42,2,3,2,1,1393.66,nonwin9.png
1,43,1,4,1,1,1029.94,nonwin6.png
1,44,2,4,2,1,1338.19,nonwex9.png
1,45,1,1,1,1,1174.49,nonwin2_11.png
1,46,2,3,1,1,714.69,nonwex2_10.png
1,47,1,2,1,1,862.97,nonwex2_9.png
1,48,1,1,1,1,899.18,nonwex2_6.png
2,1,1,2,1,1,1562,nonwin2.png
2,2,2,3,2,1,1455.25,nonwin7.png
2,3,1,2,1,1,956.49,nonwex9.png
2,4,1,2,1,1,889.84,nonwex3.png
2,5,1,4,2,1,879.04,nonwin2_7.png
2,6,2,2,2,1,1460.35,nonwin2_9.png
2,7,2,3,2,1,1009.59,nonwex2_7.png
2,8,1,2,1,1,950.96,nonwex7.png
2,9,2,4,2,1,1196.04,nonwin3.png
2,10,2,3,1,1,857.47,nonwex2_10.png
2,11,1,1,1,1,1574.59,nonwin2_11.png
2,12,2,3,1,1,1548.05,nonwin2_1.png
2,13,2,4,1,1,1225.3,nonwex2_2.png
2,14,1,4,1,1,870.59,nonwex10.png
2,15,2,3,2,1,1723.89,nonwin2_10.png
2,16,2,4,1,1,913.07,nonwin2_2.png
2,17,2,2,2,1,1382.43,nonwex11.png
2,18,2,1,1,1,1307.68,nonwin10.png
2,19,2,1,1,1,1536.94,nonwin2_3.png
2,20,1,3,1,1,734.18,nonwex2_5.png
2,21,1,4,1,1,883.49,nonwex5.png
2,22,2,4,2,1,1184.75,nonwex6.png
2,23,2,4,1,1,1294.07,nonwin2_5.png
2,24,2,1,1,1,1539.36,nonwex4.png
2,25,2,2,2,1,1328.55,nonwex2_6.png
2,26,1,3,1,1,1045.69,nonwin11.png
2,27,2,2,1,1,1235.17,nonwin8.png
2,28,1,1,2,1,1000.4,nonwex2_11.png
2,29,1,2,2,1,821.65,nonwex2_9.png
2,30,1,4,2,1,986.94,nonwex8.png
2,31,1,3,2,1,1368.2,nonwex2.png
2,32,2,1,1,1,1053.57,nonwin2_4.png
2,33,2,1,1,1,1546.82,nonwin2_8.png
2,34,1,1,1,1,1720.07,nonwin1.png
2,35,1,3,2,1,2229.36,nonwex2_3.png
2,36,2,4,1,1,802.61,nonwin12.png
2,37,1,4,1,1,831.92,nonwex2_8.png
2,38,1,3,1,1,1173.19,nonwin6.png
2,39,1,1,1,1,1346.47,nonwin4.png
2,40,1,1,1,1,1679.77,nonwin2_6.png
2,41,1,4,2,1,1436.98,nonwin9.png
2,42,1,1,1,1,1474.28,nonwex2_12.png
2,43,2,2,1,1,631.33,nonwex1.png
2,44,2,3,2,1,1276.84,nonwex12.png
2,45,1,2,1,1,906.05,nonwin2_12.png
2,46,1,3,1,1,831.33,nonwex2_1.png
2,47,2,2,2,1,764.67,nonwex2_4.png
2,48,2,1,2,1,1193.95,nonwin5.png
3,1,1,2,1,1,1024.95,nonwex2_2.png
3,2,2,3,2,1,1333.24,nonwex2_12.png
3,3,1,3,2,1,969.3,nonwin2_10.png
3,4,1,2,1,1,776.42,nonwex2_10.png
3,5,1,4,2,1,996.65,nonwin2_8.png
3,6,2,1,1,1,872.88,nonwex10.png
3,7,2,1,2,1,1477.16,nonwin2_11.png
3,8,1,2,1,1,785.35,nonwex2_7.png
3,9,1,3,2,1,1005.62,nonwin3.png
3,10,1,4,1,1,913.87,nonwex12.png
3,11,2,4,2,1,1358.12,nonwex3.png
3,12,1,1,1,1,666.38,nonwex6.png
3,13,2,2,1,1,838.63,nonwex2_3.png
3,14,1,1,1,1,778.9,nonwin2_2.png
3,15,2,4,2,1,1175.18,nonwin9.png
3,16,1,3,1,1,939.38,nonwex4.png
3,17,1,1,2,1,791.66,nonwin5.png
3,18,2,2,1,1,915.67,nonwex2_11.png
3,19,2,4,2,1,1008.21,nonwin2_6.png
3,20,1,2,2,1,948.42,nonwin2_3.png
3,21,2,3,2,1,968.67,nonwex2_8.png
3,22,1,4,2,1,1268.9,nonwin2_4.png
3,23,1,3,2,1,1241.23,nonwex2_6.png
3,24,2,1,1,1,1277.42,nonwin2_12.png
3,25,1,3,1,1,857.63,nonwin2_9.png
3,26,2,2,2,1,885.92,nonwex9.png
3,27,1,4,2,1,1050.14,nonwex11.png
3,28,2,4,1,1,1342.45,nonwin6.png
3,29,2,4,2,1,1218.67,nonwin2_7.png
3,30,1,4,2,1,798.94,nonwin10.png
3,31,1,2,1,1,899.22,nonwin8.png
3,32,2,3,2,1,1351.52,nonwex8.png
3,33,1,4,1,1,955.48,nonwex2_4.png
3,34,2,2,2,1,824.01,nonwin2.png
3,35,2,3,1,1,1084.21,nonwex2.png
3,36,2,4,1,1,1280.48,nonwex7.png
3,37,1,1,2,1,700.69,nonwex1.png
3,38,1,1,2,1,865.04,nonwin2_5.png
3,39,1,3,2,1,989.26,nonwin12.png
3,40,2,3,0,0,0,nonwin11.png
3,41,1,2,1,1,877.77,nonwin2_1.png
3,42,2,1,1,1,938.04,nonwex2_9.png
3,43,2,3,2,1,830.28,nonwin4.png
3,44,2,2,1,1,1146.5,nonwex2_1.png
3,45,2,2,2,1,990.77,nonwin1.png
3,46,2,1,1,1,1051.11,nonwex2_5.png
3,47,1,1,2,1,791.32,nonwin7.png
3,48,2,1,2,1,1243.37,nonwex5.png
4,1,2,1,2,1,816.86,nonwex2.png
4,2,1,3,2,1,790.12,nonwin2_9.png
4,3,2,2,2,1,1107.37,nonwin2_7.png
4,4,1,1,1,1,704.53,nonwex2_3.png
4,5,1,4,2,1,926,nonwin2_3.png
4,6,2,3,2,1,1083.25,nonwex8.png
4,7,2,2,2,1,1288.52,nonwin12.png
4,8,1,3,1,1,805.8,nonwex2_10.png
4,9,2,2,2,1,867.05,nonwin8.png
4,10,1,3,2,1,1144.34,nonwex10.png
4,11,1,3,2,1,813.62,nonwin2_6.png
4,12,1,2,1,1,986.88,nonwex12.png
4,13,1,4,1,1,1080.18,nonwin3.png
4,14,2,1,2,1,1069.45,nonwex11.png
4,15,1,4,1,1,1034.74,nonwin10.png
4,16,2,4,2,1,1095.98,nonwex4.png
4,17,2,4,2,1,805.27,nonwin2_2.png
4,18,1,3,1,1,810.5,nonwin2_5.png
4,19,1,1,2,1,919.75,nonwex1.png
4,20,2,1,2,1,749.08,nonwin7.png
4,21,1,4,2,1,826.19,nonwex9.png
4,22,2,1,2,1,807.63,nonwin1.png
4,23,2,2,2,1,1628.88,nonwex2_11.png
4,24,1,1,2,1,770.11,nonwex2_4.png
4,25,1,1,2,1,631.45,nonwex2_12.png
4,26,1,2,2,1,996.74,nonwin11.png
4,27,2,4,2,1,1882.01,nonwex2_5.png
4,28,2,3,2,1,943.3,nonwin2_4.png
4,29,2,3,0,0,0,nonwex2_9.png
4,30,2,4,0,0,0,nonwin2_1.png
4,31,2,4,0,0,0,nonwin2.png
4,32,1,2,2,1,852.39,nonwin2_10.png
4,33,2,3,2,1,849.57,nonwex6.png
4,34,2,2,2,1,1126.89,nonwex2_6.png
4,35,1,4,2,1,892.22,nonwex5.png
4,36,2,1,2,1,697.27,nonwin2_8.png
4,37,1,2,2,1,950.74,nonwex7.png
4,38,2,3,2,1,1235.94,nonwex2_7.png
4,39,2,4,2,1,1985.22,nonwin2_11.png
4,40,1,2,2,1,1326.49,nonwex2_1.png
4,41,1,1,1,1,731.85,nonwin5.png
4,42,1,3,2,1,857.12,nonwin4.png
4,43,1,1,1,1,806.31,nonwin2_12.png
4,44,2,2,1,1,1667.66,nonwex3.png
4,45,2,3,2,1,1448.95,nonwin6.png
4,46,1,2,1,1,830.18,nonwex2_2.png
4,47,2,1,2,1,755.44,nonwex2_8.png
4,48,1,4,0,0,0,nonwin9.png
5,1,1,4,1,1,1035.33,nonwex2_7.png
5,2,2,3,1,1,1744.54,nonwex2_3.png
5,3,1,2,1,1,909.9,nonwex4.png
5,4,1,4,1,1,971.12,nonwin1.png
5,5,2,3,2,1,1480.43,nonwex1.png
5,6,1,3,1,1,1933.65,nonwin7.png
5,7,2,4,2,1,1874.76,nonwex5.png
5,8,2,3,1,1,2192.24,nonwin9.png
5,9,2,4,1,1,2205.47,nonwin11.png
5,10,2,3,1,1,2202.81,nonwex10.png
5,11,1,3,1,1,1455.99,nonwin2_11.png
5,12,2,1,1,1,1877.29,nonwin10.png
5,13,2,4,1,1,1322.59,nonwex12.png
5,14,1,3,1,1,879.92,nonwex6.png
5,15,1,4,1,1,1901.15,nonwin2_8.png
5,16,2,1,2,1,2122.39,nonwin4.png
5,17,1,1,1,1,1607.66,nonwin2.png
5,18,2,1,1,1,1028.98,nonwin2_12.png
5,19,1,2,1,1,674.23,nonwin6.png
5,20,2,1,1,1,991.48,nonwex2_1.png
5,21,1,1,1,1,1436.83,nonwex2_9.png
5,22,2,3,1,1,833.88,nonwin5.png
5,23,1,1,1,1,2655.31,nonwex11.png
5,24,1,3,2,1,1468.41,nonwin8.png
5,25,1,3,1,1,905.93,nonwex2_5.png
5,26,2,4,2,1,1783.13,nonwin2_10.png
5,27,1,2,2,1,2116.46,nonwex2_8.png
5,28,1,1,1,1,1225.7,nonwin2_7.png
5,29,1,2,1,1,1238.92,nonwex2_6.png
5,30,1,1,1,1,844.3,nonwin2_1.png
5,31,1,2,1,1,809.51,nonwex2.png
5,32,2,3,1,1,1262.79,nonwin3.png
5,33,2,2,1,1,1180.05,nonwex2_12.png
5,34,2,4,1,1,1833.38,nonwin2_3.png
5,35,1,2,1,1,1486.57,nonwin12.png
5,36,2,2,1,1,1523.88,nonwin2_9.png
5,37,2,2,2,1,1385.12,nonwex2_4.png
5,38,2,4,2,1,2438.42,nonwex7.png
5,39,1,3,2,1,2555.55,nonwex8.png
5,40,2,2,2,1,1472.94,nonwin2_6.png
5,41,2,2,1,1,1102.31,nonwex2_10.png
5,42,1,1,1,1,651.54,nonwin2_4.png
5,43,1,4,1,1,792.82,nonwin2_2.png
5,44,2,1,1,1,1302.1,nonwin2_5.png
5,45,1,4,1,1,1163.31,nonwex2_11.png
5,46,1,4,1,1,1192.66,nonwex3.png
5,47,2,1,1,1,2229.86,nonwex2_2.png
5,48,2,2,1,1,2203.22,nonwex9.png
6,1,2,1,1,1,1695.5,nonwin2_4.png
6,2,1,1,2,1,1252.81,nonwin11.png
6,3,1,2,1,1,3162.08,nonwin2_6.png
6,4,2,4,2,1,1039.28,nonwex4.png
6,5,1,3,1,1,1100.56,nonwex5.png
6,6,1,2,2,1,1153.83,nonwex2_8.png
6,7,2,2,2,1,863.15,nonwin7.png
6,8,1,1,1,1,692.47,nonwex2_9.png
6,9,1,1,1,1,617.65,nonwex7.png
6,10,1,2,2,1,702.93,nonwin2_12.png
6,11,2,4,2,1,788.26,nonwin2_8.png
6,12,2,2,2,1,977.55,nonwin2_10.png
6,13,2,3,1,1,422.8,nonwin2_2.png
6,14,1,2,2,1,531.82,nonwex2_5.png
6,15,1,3,1,1,777.33,nonwex10.png
6,16,2,1,1,1,598.65,nonwex12.png
6,17,1,4,2,1,571.93,nonwex2_1.png
6,18,2,2,2,1,673.21,nonwin2_1.png
6,19,2,1,1,1,630.44,nonwex2_10.png
6,20,2,4,2,1,579.67,nonwin2_9.png
6,21,1,4,2,1,688.94,nonwex2_12.png
6,22,1,4,2,1,566.25,nonwex2.png
6,23,2,1,1,1,571.51,nonwin5.png
6,24,1,2,2,1,472.84,nonwin9.png
6,25,1,4,2,1,670.04,nonwin2_7.png
6,26,2,4,2,1,667.37,nonwex6.png
6,27,1,2,2,1,688.62,nonwin6.png
6,28,1,3,1,1,341.92,nonwin2_11.png
6,29,1,3,1,1,859.18,nonwex2_3.png
6,30,2,3,1,1,584.41,nonwin12.png
6,31,1,1,1,1,829.5,nonwin4.png
6,32,2,4,2,1,546.97,nonwin3.png
6,33,2,2,2,1,552.23,nonwex11.png
6,34,1,1,1,1,581.53,nonwex3.png
6,35,1,1,1,1,770.78,nonwex2_11.png
6,36,1,4,2,1,808.05,nonwin1.png
6,37,2,2,2,1,1333.41,nonwex2_2.png
6,38,2,3,1,1,690.33,nonwin2_3.png
6,39,1,3,1,1,679.97,nonwex8.png
6,40,1,4,2,1,581.17,nonwex9.png
6,41,2,3,1,1,898.51,nonwex1.png
6,42,2,2,2,1,535.79,nonwin10.png
6,43,2,3,1,1,700.99,nonwin2_5.png
6,44,2,3,1,1,554.24,nonwex2_6.png
6,45,2,1,1,1,623.58,nonwin8.png
6,46,1,3,1,1,532.59,nonwin2.png
6,47,2,1,1,1,1130.07,nonwex2_7.png
6,48,2,4,2,1,599.16,nonwex2_4.png
7,1,2,4,1,1,977.18,nonwex3.png
7,2,1,1,1,1,773.39,nonwex12.png
7,3,2,3,1,1,1177.66,nonwex10.png
7,4,1,2,1,1,1301.87,nonwin12.png
7,5,1,1,2,1,850.16,nonwex11.png
7,6,2,1,2,1,1414.36,nonwin2.png
7,7,1,3,1,1,1322.63,nonwin2_2.png
7,8,2,1,1,1,1022.84,nonwex2_8.png
7,9,1,3,1,1,1019.08,nonwin8.png
7,10,1,3,2,1,1095.41,nonwin2_8.png
7,11,2,3,1,1,822.3,nonwex2_5.png
7,12,1,1,1,1,834.5,nonwin2_3.png
7,13,2,4,1,1,1438.55,nonwex9.png
7,14,1,4,1,1,954.99,nonwex2_10.png
7,15,1,4,2,1,999.27,nonwex2_7.png
7,16,2,4,2,1,1587.57,nonwin6.png
7,17,2,2,1,1,1471.77,nonwin1.png
7,18,1,4,2,1,964.08,nonwex2_6.png
7,19,2,3,2,1,1120.24,nonwex2_12.png
7,20,2,2,2,1,1468.6,nonwex2_3.png
7,21,2,2,1,1,1096.81,nonwex8.png
7,22,1,2,1,1,997.06,nonwex1.png
7,23,2,2,2,1,1313.27,nonwex2.png
7,24,2,3,1,1,941.52,nonwex5.png
7,25,1,3,1,1,921.83,nonwin2_5.png
7,26,1,4,1,1,1070.01,nonwin3.png
7,27,1,2,1,1,1442.29,nonwin2_9.png
7,28,2,2,1,1,1550.36,nonwin2_12.png
7,29,1,2,1,1,1442.84,nonwex2_4.png
7,30,1,4,2,1,1191.07,nonwin2_4.png
7,31,1,1,1,1,989.91,nonwex4.png
7,32,1,2,2,1,1034.24,nonwex6.png
7,33,2,3,1,1,1678.43,nonwex2_11.png
7,34,1,3,1,1,1826.72,nonwin10.png
7,35,1,1,2,1,1550.96,nonwin7.png
7,36,1,1,2,1,1355.2,nonwin2_10.png
7,37,2,4,1,1,1471.42,nonwin2_11.png
7,38,2,1,1,1,1387.69,nonwin4.png
7,39,1,3,1,1,1183.98,nonwin5.png
7,40,2,3,1,1,1894.95,nonwin2_7.png
7,41,2,4,2,1,1907.1,nonwex2_1.png
7,42,2,1,1,1,1263.37,nonwex2_9.png
7,43,2,1,1,1,1187.48,nonwex7.png
7,44,1,4,1,1,1175.94,nonwex2_2.png
7,45,2,2,2,1,2020.21,nonwin9.png
7,46,1,2,1,1,2392.41,nonwin2_1.png
7,47,2,1,1,1,1900.61,nonwin2_6.png
7,48,2,4,1,1,1456.85,nonwin11.png
8,1,2,4,1,1,976.44,nonwin2_2.png
8,2,1,2,1,1,1036.74,nonwin2_3.png
8,3,1,1,2,1,1065.01,nonwin2_9.png
8,4,2,4,1,1,1213.29,nonwex2_9.png
8,5,2,1,1,1,1377.48,nonwex2_7.png
8,6,1,2,1,1,1181.71,nonwin10.png
8,7,1,4,2,1,1209.99,nonwex2_12.png
8,8,2,2,1,1,1054.1,nonwin12.png
8,9,2,4,1,1,986.54,nonwin2.png
8,10,2,2,1,1,1126.85,nonwin2_8.png
8,11,1,3,1,1,1259.12,nonwin2_10.png
8,12,2,4,1,1,1423.35,nonwex2.png
8,13,1,2,1,1,963.63,nonwex12.png
8,14,1,1,1,1,847.83,nonwex2_3.png
8,15,1,4,1,1,1036.13,nonwin2_6.png
8,16,1,3,2,1,856.37,nonwin5.png
8,17,2,1,2,1,1108.6,nonwin2_4.png
8,18,2,3,2,1,1192.87,nonwin2_7.png
8,19,1,4,2,1,1021.21,nonwex1.png
8,20,1,2,2,1,1033.39,nonwex2_1.png
8,21,2,3,2,1,1669.75,nonwex11.png
8,22,2,3,1,1,1090,nonwin8.png
8,23,2,2,2,1,1190.07,nonwex2_5.png
8,24,1,2,1,1,994.52,nonwin9.png
8,25,2,4,2,1,1134.78,nonwin7.png
8,26,1,1,1,1,947.04,nonwex2_2.png
8,27,1,3,1,1,967.24,nonwin4.png
8,28,2,3,2,1,931.58,nonwex4.png
8,29,1,2,2,1,1063.77,nonwin2_12.png
8,30,2,3,2,1,1540.12,nonwin1.png
8,31,2,4,1,1,896.36,nonwin2_1.png
8,32,1,4,1,1,772.56,nonwin2_5.png
8,33,1,4,2,1,848.82,nonwin11.png
8,34,1,1,2,1,893.11,nonwex7.png
8,35,2,1,2,1,841.42,nonwex2_8.png
8,36,2,2,1,1,877.62,nonwin6.png
8,37,2,3,2,1,993.94,nonwin2_11.png
8,38,1,1,1,1,1093.98,nonwin3.png
8,39,2,1,1,1,850.47,nonwex3.png
8,40,2,2,2,1,926.75,nonwex6.png
8,41,1,3,2,1,1146.97,nonwex2_10.png
8,42,2,1,1,1,1207.28,nonwex2_6.png
8,43,1,4,1,1,1099.56,nonwex2_4.png
8,44,2,1,2,1,887.81,nonwex8.png
8,45,1,3,1,1,1132.08,nonwex10.png
8,46,1,3,2,1,984.29,nonwex5.png
8,47,1,1,1,1,1124.53,nonwex9.png
8,48,2,2,1,1,1232.88,nonwex2_11.png
9,1,1,3,0,0,0,nonwex2_11.png
9,2,1,2,1,1,1369.57,nonwex2_7.png
9,3,2,1,1,1,1326.83,nonwex2_12.png
9,4,2,1,2,1,1476.16,nonwex2_4.png
9,5,1,1,2,1,1617.38,nonwex2_6.png
9,6,2,4,1,1,1878.7,nonwex9.png
9,7,2,2,1,1,1467.97,nonwex12.png
9,8,2,3,1,1,1153.24,nonwex10.png
9,9,2,4,2,1,1358.53,nonwin2_9.png
9,10,1,3,2,1,1787.6,nonwin2_7.png
9,11,2,2,1,1,1641.05,nonwin9.png
9,12,2,1,2,1,1214.32,nonwin3.png
9,13,1,1,2,1,1491.65,nonwex2_5.png
9,14,2,3,1,1,1552.87,nonwex2_3.png
9,15,1,1,1,1,1766.2,nonwex2.png
9,16,1,1,1,1,1723.47,nonwin8.png
9,17,1,2,1,1,1656.73,nonwin2.png
9,18,1,2,2,1,1566.01,nonwex3.png
9,19,2,2,1,1,1771.23,nonwin11.png
9,20,1,3,2,1,1680.55,nonwin2_8.png
9,21,1,1,2,1,1613.85,nonwin1.png
9,22,1,4,1,1,1491.13,nonwin2_2.png
9,23,1,2,1,1,1544.35,nonwex11.png
9,24,1,3,1,1,1909.6,nonwin6.png
9,25,2,2,2,1,1794.7,nonwin2_10.png
9,26,2,3,1,1,1832.16,nonwin2_5.png
9,27,2,2,1,1,1645.41,nonwex2_2.png
9,28,1,4,2,1,1946.76,nonwex2_9.png
9,29,2,3,2,1,1911.98,nonwex7.png
9,30,2,4,2,1,1773.29,nonwin2_12.png
9,31,2,1,2,1,1706.51,nonwin2_3.png
9,32,2,4,2,1,1615.84,nonwin5.png
9,33,1,3,2,1,1757.06,nonwex6.png
9,34,1,2,1,1,1514.41,nonwex8.png
9,35,1,2,2,1,1591.66,nonwin7.png
9,36,2,1,2,1,1764.94,nonwex5.png
9,37,2,1,2,1,1962.2,nonwex2_1.png
9,38,1,4,1,1,1751.52,nonwin2_4.png
9,39,1,4,2,1,2100.8,nonwin2_11.png
9,40,2,2,2,1,2745.99,nonwin2_6.png
9,41,1,3,2,1,2591.31,nonwin12.png
9,42,1,4,1,1,1516.42,nonwex4.png
9,43,1,4,1,1,1769.81,nonwex2_8.png
9,44,2,4,1,1,1775.1,nonwex2_10.png
9,45,2,3,2,1,1876.41,nonwex1.png
9,46,1,1,1,1,1897.74,nonwin2_1.png
9,47,2,4,2,1,1910.98,nonwin4.png
9,48,2,3,2,1,1588.26,nonwin10.png
10,1,1,2,2,1,1157.44,nonwex2_12.png
10,2,2,3,2,1,969.67,nonwin12.png
10,3,1,3,2,1,1301.91,nonwex5.png
10,4,1,1,2,1,1218.18,nonwin4.png
10,5,2,3,2,1,806.41,nonwin2_4.png
10,6,2,2,1,1,1098.67,nonwin2_2.png
10,7,1,3,1,1,774.84,nonwin11.png
10,8,1,3,2,1,811.16,nonwex8.png
10,9,1,2,1,1,951.39,nonwin6.png
10,10,1,1,1,1,1155.59,nonwex2_1.png
10,11,2,2,2,1,951.86,nonwin2_3.png
10,12,2,3,2,1,748.14,nonwin2_5.png
10,13,2,2,2,1,536.17,nonwin5.png
10,14,1,1,1,1,924.66,nonwin2_12.png
10,15,1,4,2,1,568.84,nonwex2_8.png
10,16,1,4,2,1,941.1,nonwin9.png
10,17,1,1,2,1,825.3,nonwin1.png
10,18,1,2,2,1,1229.6,nonwex7.png
10,19,2,3,2,1,673.8,nonwex2_10.png
10,20,1,3,2,1,438.04,nonwex3.png
10,21,1,3,0,0,0,nonwex2_9.png
10,22,1,1,2,1,822.52,nonwex2_11.png
10,23,2,4,2,1,690.77,nonwin10.png
10,24,1,2,2,1,527.05,nonwex2_5.png
10,25,1,4,2,1,507.32,nonwex10.png
10,26,1,2,2,1,519.54,nonwex2.png
10,27,2,1,2,1,339.79,nonwex6.png
10,28,1,4,2,1,303.82,nonwin2_7.png
10,29,2,4,2,1,524.32,nonwex2_2.png
10,30,2,4,2,1,568.5,nonwex4.png
10,31,1,4,0,0,0,nonwin2_6.png
10,32,2,1,2,1,1161.06,nonwex1.png
10,33,2,2,2,1,701.28,nonwex2_6.png
10,34,2,3,1,1,985.54,nonwin7.png
10,35,2,4,2,1,901.78,nonwex2_7.png
10,36,2,2,0,0,0,nonwin8.png
10,37,1,1,0,0,0,nonwin2.png
10,38,2,1,0,0,0,nonwin2_1.png
10,39,1,4,2,1,1214.76,nonwin2_11.png
10,40,2,2,0,0,0,nonwin2_9.png
10,41,2,1,2,1,2167.28,nonwex2_4.png
10,42,1,2,0,0,0,nonwex2_3.png
10,43,1,3,0,0,0,nonwex9.png
10,44,2,1,2,1,2668.01,nonwin3.png
10,45,2,4,2,1,504.24,nonwex11.png
10,46,2,1,2,1,332.47,nonwin2_8.png
10,47,2,4,0,0,0,nonwex12.png
10,48,2,3,0,0,0,nonwin2_10.png
11,1,1,2,1,1,1168.64,nonwin10.png
11,2,1,2,2,1,1220.9,nonwex12.png
11,3,1,2,2,1,1145.1,nonwex2_4.png
11,4,1,4,2,1,1693.41,nonwin2_9.png
11,5,2,3,2,1,1673.64,nonwex2_5.png
11,6,1,3,1,1,1117.89,nonwex4.png
11,7,2,2,1,1,1658.11,nonwin6.png
11,8,1,1,1,1,1022.38,nonwin12.png
11,9,1,4,1,1,1442.66,nonwin2_8.png
11,10,2,4,1,1,1694.94,nonwex3.png
11,11,2,4,2,1,770.85,nonwex9.png
11,12,1,1,2,1,1319.38,nonwex2_2.png
11,13,2,2,1,1,1891.64,nonwex2.png
11,14,2,4,2,1,1191.84,nonwex2_9.png
11,15,2,2,1,1,1740.12,nonwex2_1.png
11,16,2,3,2,1,880.34,nonwex8.png
11,17,1,4,1,1,1972.65,nonwex2_7.png
11,18,1,2,2,1,1792.93,nonwin2_2.png
11,19,1,4,2,1,1357.14,nonwin2_3.png
11,20,2,2,2,1,1665.43,nonwex2_11.png
11,21,1,4,2,1,1173.57,nonwin2_1.png
11,22,2,1,2,1,1017.84,nonwin11.png
11,23,1,1,1,1,1262.13,nonwin2_4.png
11,24,2,3,2,1,2186.45,nonwin2_6.png
11,25,2,4,1,1,2062.72,nonwin2_12.png
11,26,2,1,2,1,1650.73,nonwex5.png
11,27,1,3,1,1,1311.2,nonwin7.png
11,28,2,4,2,1,1027.41,nonwin2_7.png
11,29,1,2,2,1,1415.65,nonwin8.png
11,30,1,1,1,1,2251.97,nonwin2_5.png
11,31,2,1,2,1,1440.12,nonwex2_8.png
11,32,2,2,1,1,1508.43,nonwex2_3.png
11,33,2,2,2,1,1128.66,nonwin4.png
11,34,2,3,1,1,1412.92,nonwex7.png
11,35,1,3,1,1,1081.19,nonwex1.png
11,36,2,1,2,1,997.44,nonwin2.png
11,37,2,1,1,1,1369.7,nonwin1.png
11,38,1,3,1,1,1645.99,nonwin5.png
11,39,2,4,2,1,1434.24,nonwex10.png
11,40,1,1,1,1,1766.52,nonwex2_10.png
11,41,1,3,1,1,1250.53,nonwex11.png
11,42,2,3,0,0,0,nonwex2_12.png
11,43,1,2,1,1,1123.22,nonwex6.png
11,44,2,3,2,1,1111.4,nonwin2_11.png
11,45,1,3,2,1,1811.72,nonwin2_10.png
11,46,1,1,1,1,959.93,nonwex2_6.png
11,47,2,1,2,1,2108.26,nonwin9.png
11,48,1,4,2,1,880.48,nonwin3.png
12,1,1,4,1,1,1293.93,nonwin10.png
12,2,2,4,1,1,2298.26,nonwin2_1.png
12,3,1,2,1,1,1702.63,nonwex7.png
12,4,1,1,2,1,2066.97,nonwin3.png
12,5,1,2,1,1,2231.31,nonwin2_10.png
12,6,1,4,2,1,2595.75,nonwin11.png
12,7,2,1,1,1,863.98,nonwin2_2.png
12,8,1,3,2,1,1260.41,nonwex2_2.png
12,9,1,3,1,1,1920.84,nonwin2_12.png
12,10,2,2,2,1,1844.91,nonwin2_7.png
12,11,1,1,1,1,2137.51,nonwin4.png
12,12,2,4,1,1,2037.91,nonwex3.png
12,13,1,4,2,1,2370.29,nonwex10.png
12,14,2,1,2,1,1814.61,nonwex2_5.png
12,15,1,1,2,1,1834.92,nonwex5.png
12,16,1,1,1,1,1511.28,nonwex1.png
12,17,1,3,2,1,2099.67,nonwex2_12.png
12,18,2,3,2,1,2256.06,nonwin7.png
12,19,1,2,2,1,2116.42,nonwin2_9.png
12,20,2,2,2,1,1840.83,nonwin8.png
12,21,1,1,2,1,1797.14,nonwex2_3.png
12,22,2,3,2,1,2121.53,nonwex2.png
12,23,1,2,1,1,1941.84,nonwex9.png
12,24,2,1,2,1,1194.24,nonwin2_11.png
12,25,1,2,2,1,942.39,nonwin9.png
12,26,2,3,1,1,1482.94,nonwin12.png
12,27,2,1,1,1,1895.35,nonwex2_9.png
12,28,2,2,2,1,1947.64,nonwin6.png
12,29,2,4,2,1,2088.02,nonwex11.png
12,30,1,4,1,1,1636.43,nonwex2_10.png
12,31,2,4,2,1,1656.82,nonwex8.png
12,32,2,1,2,1,1357.11,nonwin2_8.png
12,33,1,3,2,1,1425.48,nonwex2_4.png
12,34,2,3,2,1,1549.81,nonwex2_6.png
12,35,1,3,1,1,1474.24,nonwex12.png
12,36,1,2,1,1,1622.57,nonwin2_3.png
12,37,1,3,1,1,1162.92,nonwin2_6.png
12,38,2,3,2,1,1127.33,nonwex2_11.png
12,39,1,4,1,1,1555.71,nonwex2_1.png
12,40,2,2,2,1,1871.88,nonwin1.png
12,41,1,1,1,1,1580.43,nonwin2_5.png
12,42,2,2,2,1,936.73,nonwex6.png
12,43,2,1,1,1,725.17,nonwin2_4.png
12,44,2,4,2,1,2105.53,nonwex2_8.png
12,45,1,4,2,1,973.82,nonwin5.png
12,46,2,3,2,1,906.17,nonwin2.png
12,47,2,4,2,1,870.62,nonwex4.png
12,48,2,2,2,1,1290.96,nonwex2_7.png
13,1,2,4,2,1,977.72,nonwin4.png
13,2,1,1,2,1,1477.99,nonwex3.png
13,3,2,4,2,1,1034.26,nonwex2_2.png
13,4,2,3,2,1,942.53,nonwin2_6.png
13,5,1,1,1,1,842.83,nonwex2_8.png
13,6,1,2,2,1,759.06,nonwin2_2.png
13,7,2,2,2,1,779.34,nonwex2_1.png
13,8,2,3,2,1,759.6,nonwex9.png
13,9,2,4,1,1,1259.89,nonwin10.png
13,10,1,3,2,1,1240.06,nonwex2_7.png
13,11,1,2,2,1,700.35,nonwin2_7.png
13,12,1,1,2,1,592.35,nonwin7.png
13,13,1,4,2,1,740.91,nonwin2_8.png
13,14,1,2,2,1,857.18,nonwin6.png
13,15,2,2,2,1,717.43,nonwex7.png
13,16,1,4,2,1,745.65,nonwex6.png
13,17,1,4,2,1,869.96,nonwex2.png
13,18,1,4,2,1,906.16,nonwex11.png
13,19,1,2,2,1,934.49,nonwex4.png
13,20,1,1,1,1,973.46,nonwin1.png
13,21,2,3,2,1,1092.38,nonwex1.png
13,22,2,2,2,1,776.63,nonwex2_10.png
13,23,2,2,2,1,684.87,nonwin2_10.png
13,24,2,4,2,1,897.17,nonwex2_12.png
13,25,1,1,2,1,733.4,nonwin2_1.png
13,26,1,3,2,1,833.62,nonwin8.png
13,27,2,1,2,1,885.68,nonwin11.png
13,28,1,2,2,1,898.19,nonwin2_4.png
13,29,2,1,2,1,1862.51,nonwin2_12.png
13,30,2,4,2,1,1106.76,nonwin3.png
13,31,1,3,2,1,1030.96,nonwex2_6.png
13,32,2,3,2,1,1195.3,nonwex12.png
13,33,2,1,2,1,791.52,nonwex2_4.png
13,34,2,1,2,1,1019.81,nonwin9.png
13,35,2,2,2,1,1026.73,nonwin2_9.png
13,36,2,4,2,1,926.95,nonwex5.png
13,37,1,4,1,1,1115.2,nonwex2_11.png
13,38,1,2,2,1,951.43,nonwin2_11.png
13,39,1,4,2,1,691.74,nonwex8.png
13,40,2,3,2,1,727.99,nonwex10.png
13,41,1,1,2,1,724.2,nonwin12.png
13,42,1,3,2,1,744.33,nonwex2_9.png
13,43,2,3,2,1,644.76,nonwin2_3.png
13,44,2,1,2,1,681.01,nonwin2_5.png
13,45,2,1,2,1,541.27,nonwin5.png
13,46,1,3,2,1,609.51,nonwin2.png
13,47,1,3,2,1,669.77,nonwex2_5.png
13,48,2,2,2,1,866.1,nonwex2_3.png