SID,Familiarity,Trial,Repetition,Resp,Corr,RT,ImgName
1,1,1,1,2,1,738.07,wordin2_1.png
1,1,2,1,1,1,790.33,wordin2_10.png
1,1,3,2,1,1,954.48,wordin1.png
1,1,4,1,1,1,710.88,wordin2_8.png
1,1,5,2,1,1,1155.16,wordex7.png
1,1,6,1,1,1,679.36,wordex2_3.png
1,1,7,1,1,1,630.25,wordex6.png
1,1,8,1,2,1,778.53,wordin2_12.png
1,1,9,1,1,1,1422.79,wordex2_9.png
1,1,10,2,2,1,1099.11,wordex2_7.png
1,1,11,2,2,1,1159.36,wordex2_12.png
1,1,12,1,2,1,755.54,wordex2_5.png
1,1,13,1,1,1,695.87,wordex2_4.png
1,1,14,1,1,1,756.1,wordin2_9.png
1,1,15,2,1,1,1056.36,wordex2_11.png
1,1,16,1,2,1,772.6,wordin2_11.png
1,1,17,2,2,1,792.8,wordin3.png
1,1,18,2,2,1,1068.93,wordin2_7.png
1,1,19,2,2,1,945.37,wordin4.png
1,1,20,1,1,1,693.62,wordex2_1.png
1,1,21,2,1,1,913.9,wordin2_3.png
1,1,22,2,1,1,1054.13,wordex11.png
1,1,23,2,2,1,986.34,wordin2_2.png
1,1,24,1,1,1,942.59,wordin10.png
1,1,25,2,2,1,842.84,wordex12.png
1,1,26,2,1,1,911.13,wordin2_6.png
1,1,27,1,2,1,915.35,wordex8.png
1,1,28,1,1,1,887.61,wordin2.png
1,1,29,2,1,1,1195.88,wordex2.png
1,1,30,1,1,1,648.16,wordin7.png
1,1,31,1,1,1,636.44,wordex2_8.png
1,1,32,1,1,1,744.68,wordex3.png
1,1,33,1,1,1,780.68,wordex10.png
1,1,34,2,1,1,1593.24,wordex2_10.png
1,1,35,2,1,1,1413.45,wordin8.png
1,1,36,1,1,1,713.74,wordin11.png
1,1,37,2,1,1,893.94,wordex2_2.png
1,1,38,2,1,1,1578.23,wordin5.png
1,1,39,2,1,1,838.47,wordex4.png
1,1,40,2,2,1,1066.74,wordex9.png
1,1,41,1,2,1,1399.02,wordin9.png
1,1,42,2,2,1,1187.26,wordin6.png
1,1,43,1,1,1,1647.49,wordin2_4.png
1,1,44,1,2,1,883.69,wordin2_5.png
1,1,45,2,2,1,1152.01,wordin12.png
1,1,46,2,1,1,1516.32,wordex2_6.png
1,1,47,2,0,0,0,wordex1.png
1,1,48,1,1,1,1004.6,wordex5.png
2,1,1,1,1,1,442.34,wordin2_6.png
2,1,2,2,2,1,990.54,wordex2_5.png
2,1,3,1,2,1,674.83,wordin2_7.png
2,1,4,2,2,1,935.06,wordin9.png
2,1,5,1,2,1,747.36,wordin8.png
2,1,6,1,2,1,943.61,wordex7.png
2,1,7,1,1,1,595.9,wordex2_2.png
2,1,8,1,2,1,904.11,wordex12.png
2,1,9,2,1,1,876.41,wordex8.png
2,1,10,1,1,1,744.69,wordex1.png
2,1,11,2,1,1,828.94,wordex2_8.png
2,1,12,1,2,1,800.98,wordin6.png
2,1,13,2,2,1,701.42,wordin2_11.png
2,1,14,1,2,1,617.72,wordex2.png
2,1,15,2,1,1,694.02,wordin2_4.png
2,1,16,2,2,1,810.21,wordex2_9.png
2,1,17,2,1,1,630.46,wordex2_4.png
2,1,18,2,1,1,650.75,wordin2_9.png
2,1,19,1,2,1,719.05,wordin3.png
2,1,20,1,2,1,939.32,wordex2_6.png
2,1,21,1,1,1,679.51,wordin1.png
2,1,22,2,1,1,627.87,wordex2_1.png
2,1,23,2,2,1,1120.11,wordin11.png
2,1,24,2,1,1,676.39,wordin7.png
2,1,25,1,2,1,872.62,wordin12.png
2,1,26,1,1,1,804.85,wordin2_2.png
2,1,27,2,1,1,720.97,wordex10.png
2,1,28,1,1,1,661.36,wordex2_7.png
2,1,29,2,2,1,665.63,wordin10.png
2,1,30,1,1,1,733.88,wordex4.png
2,1,31,2,2,1,626.21,wordex5.png
2,1,32,1,1,1,694.4,wordex2_11.png
2,1,33,1,1,1,714.72,wordex2_10.png
2,1,34,2,1,1,806.93,wordin2.png
2,1,35,2,2,1,1355.31,wordex2_3.png
2,1,36,1,2,1,559.48,wordin5.png
2,1,37,1,1,1,651.71,wordex11.png
2,1,38,2,1,1,687.99,wordex6.png
2,1,39,1,2,1,708.26,wordex2_12.png
2,1,40,2,2,1,720.6,wordin2_12.png
2,1,41,2,2,1,604.76,wordin2_10.png
2,1,42,2,1,1,608.91,wordin2_1.png
2,1,43,1,2,1,485.34,wordin4.png
2,1,44,1,1,1,577.6,wordin2_3.png
2,1,45,2,1,1,941.82,wordin2_5.png
2,1,46,1,2,1,738.12,wordex9.png
2,1,47,2,2,1,998.36,wordin2_8.png
2,1,48,2,1,1,850.62,wordex3.png
3,1,1,2,2,1,993.93,wordex9.png
3,1,2,2,2,1,614.18,wordin2_2.png
3,1,3,2,2,1,1410.43,wordex2_2.png
3,1,4,2,1,1,1006.68,wordin12.png
3,1,5,1,1,1,762.76,wordin2_10.png
3,1,6,1,2,1,847.19,wordex5.png
3,1,7,2,2,1,1019.46,wordin2_6.png
3,1,8,2,2,1,855.67,wordex4.png
3,1,9,2,2,1,763.98,wordex2_12.png
3,1,10,2,2,1,1104.23,wordex2_7.png
3,1,11,1,1,1,764.47,wordex8.png
3,1,12,2,1,1,1248.79,wordin5.png
3,1,13,1,2,1,772.97,wordin7.png
3,1,14,2,1,1,1265.25,wordin6.png
3,1,15,1,1,1,1293.48,wordex2_8.png
3,1,16,1,2,1,849.77,wordin2_8.png
3,1,17,2,0,0,0,wordex2_11.png
3,1,18,1,2,1,954.22,wordin2_9.png
3,1,19,1,2,1,862.5,wordin2_4.png
3,1,20,2,2,1,1666.53,wordex7.png
3,1,21,1,1,1,822.98,wordex6.png
3,1,22,1,1,1,1163.24,wordex2_9.png
3,1,23,2,1,1,927.5,wordin2_3.png
3,1,24,2,2,1,1211.74,wordin4.png
3,1,25,1,2,1,912.01,wordin2_1.png
3,1,26,2,2,1,1052.25,wordin1.png
3,1,27,1,1,1,952.53,wordex3.png
3,1,28,2,2,1,932.73,wordex2.png
3,1,29,2,2,1,993.03,wordex1.png
3,1,30,2,2,1,885.23,wordin3.png
3,1,31,1,2,1,705.48,wordin10.png
3,1,32,1,1,1,685.81,wordin2.png
3,1,33,1,1,1,986,wordex2_1.png
3,1,34,1,2,1,854.23,wordin11.png
3,1,35,1,1,1,730.31,wordex2_3.png
3,1,36,2,2,1,1086.78,wordin2_7.png
3,1,37,2,1,1,1074.83,wordex11.png
3,1,38,1,2,1,831.31,wordin2_11.png
3,1,39,1,1,1,915.5,wordex2_4.png
3,1,40,1,2,1,799.76,wordex2_5.png
3,1,41,2,2,1,1180.05,wordex2_10.png
3,1,42,2,2,1,944.31,wordex2_6.png
3,1,43,1,2,1,764.54,wordin2_12.png
3,1,44,2,2,1,1064.8,wordin8.png
3,1,45,1,2,1,709.08,wordin2_5.png
3,1,46,2,1,1,801.3,wordex12.png
3,1,47,1,2,1,805.58,wordex10.png
3,1,48,1,2,1,1081.82,wordin9.png
4,1,1,1,2,1,730.8,wordex12.png
4,1,2,1,1,1,1007.08,wordin5.png
4,1,3,2,1,1,1227.37,wordex8.png
4,1,4,2,1,1,1047.63,wordin2_5.png
4,1,5,1,2,1,907.83,wordin4.png
4,1,6,1,1,1,952.09,wordex4.png
4,1,7,2,2,1,1011.66,wordin2_12.png
4,1,8,2,1,1,1104.63,wordin2_9.png
4,1,9,1,2,1,1052.85,wordin12.png
4,1,10,2,1,1,1248.98,wordin2_10.png
4,1,11,1,2,1,853.33,wordin2_6.png
4,1,12,1,1,1,945.58,wordex11.png
4,1,13,2,1,1,1181.93,wordin11.png
4,1,14,1,2,1,906.13,wordin2_7.png
4,1,15,1,1,1,1262.35,wordin8.png
4,1,16,1,1,1,978.59,wordex2_12.png
4,1,17,2,1,1,950.88,wordin2_8.png
4,1,18,2,1,1,963.16,wordin2.png
4,1,19,2,2,1,895.34,wordex2_5.png
4,1,20,1,2,1,963.68,wordex2_11.png
4,1,21,1,1,1,879.91,wordex1.png
4,1,22,1,2,1,844.1,wordex7.png
4,1,23,1,1,1,1280.45,wordin2_2.png
4,1,24,2,2,1,924.69,wordin10.png
4,1,25,1,1,1,1088.73,wordin1.png
4,1,26,2,2,1,1037.11,wordex10.png
4,1,27,1,1,1,1017.45,wordex2_7.png
4,1,28,2,1,1,789.67,wordex2_3.png
4,1,29,2,1,1,929.95,wordex5.png
4,1,30,2,1,1,830.16,wordex2_4.png
4,1,31,2,1,1,858.43,wordex2_8.png
4,1,32,2,2,1,886.61,wordin7.png
4,1,33,1,2,1,1314.98,wordex2.png
4,1,34,2,1,1,1447.19,wordex6.png
4,1,35,1,2,1,1099.37,wordin2_3.png
4,1,36,1,2,1,767.61,wordex9.png
4,1,37,1,1,1,763.88,wordex2_2.png
4,1,38,1,1,1,832.19,wordex2_6.png
4,1,39,2,1,1,948.46,wordin2_1.png
4,1,40,2,2,1,1208.53,wordin9.png
4,1,41,2,1,1,1268.93,wordex2_1.png
4,1,42,1,2,1,865.17,wordin3.png
4,1,43,2,2,1,1029.38,wordin2_11.png
4,1,44,1,1,1,1057.73,wordex2_10.png
4,1,45,2,1,1,989.98,wordex3.png
4,1,46,2,1,1,858.22,wordin2_4.png
4,1,47,2,1,1,1006.44,wordex2_9.png
4,1,48,1,2,1,954.72,wordin6.png
5,1,1,2,1,1,1065.86,wordin2_7.png
5,1,2,2,2,1,974.07,wordin6.png
5,1,3,2,2,1,1466.39,wordin4.png
5,1,4,1,1,1,774.66,wordin2_4.png
5,1,5,1,1,1,1210.93,wordex2_8.png
5,1,6,2,1,1,950.94,wordin1.png
5,1,7,1,2,1,1107.34,wordex2_3.png
5,1,8,2,2,1,1511.65,wordex12.png
5,1,9,2,1,1,1723.88,wordex2_2.png
5,1,10,2,1,1,1400.12,wordin12.png
5,1,11,1,1,1,956.39,wordin2_10.png
5,1,12,1,1,1,1768.66,wordin9.png
5,1,13,2,1,1,1172.93,wordex2_6.png
5,1,14,2,2,1,1761.11,wordex9.png
5,1,15,2,2,1,1624.1,wordex7.png
5,1,16,1,1,1,1668.37,wordin2.png
5,1,17,2,1,1,1400.53,wordex2.png
5,1,18,1,2,1,932.82,wordin2_9.png
5,1,19,1,2,1,1241.09,wordin2_12.png
5,1,20,2,2,1,1693.34,wordin8.png
5,1,21,2,1,1,1281.4,wordin2_6.png
5,1,22,2,2,1,1637.77,wordex11.png
5,1,23,1,1,1,1402.02,wordex2_1.png
5,1,24,1,2,1,1038.27,wordex5.png
5,1,25,1,2,1,954.59,wordin10.png
5,1,26,1,2,1,926.81,wordex2_9.png
5,1,27,1,2,1,1379.04,wordex10.png
5,1,28,2,1,1,687.28,wordex4.png
5,1,29,2,1,1,1779.6,wordex2_12.png
5,1,30,2,1,1,1522.44,wordex2_7.png
5,1,31,2,2,1,1102.68,wordin5.png
5,1,32,2,1,1,1330.97,wordin3.png
5,1,33,2,2,1,1415.22,wordin2_2.png
5,1,34,1,1,1,851.5,wordin2_5.png
5,1,35,2,1,1,743.69,wordex2_10.png
5,1,36,1,1,1,659.78,wordin11.png
5,1,37,1,2,1,992.27,wordex6.png
5,1,38,1,1,1,572.45,wordex2_5.png
5,1,39,2,1,1,928.76,wordex1.png
5,1,40,2,1,1,1148.98,wordex2_11.png
5,1,41,1,1,1,1289.21,wordin2_8.png
5,1,42,1,1,1,1413.53,wordin2_1.png
5,1,43,2,2,1,1305.73,wordin2_3.png
5,1,44,1,1,1,1150.02,wordex8.png
5,1,45,1,1,1,930.27,wordin7.png
5,1,46,1,2,1,1382.54,wordex3.png
5,1,47,1,1,1,2322.76,wordin2_11.png
5,1,48,1,1,1,1222.99,wordex2_4.png
6,1,1,1,1,1,1135.06,wordin9.png
6,1,2,1,2,1,827.36,wordex9.png
6,1,3,1,2,1,911.74,wordex2_5.png
6,1,4,2,2,1,1140.16,wordin2_11.png
6,1,5,2,1,1,1896.46,wordex10.png
6,1,6,1,1,1,924.88,wordin2_9.png
6,1,7,2,1,1,1185.23,wordex12.png
6,1,8,2,2,1,941.61,wordin2_12.png
6,1,9,2,1,1,1193.93,wordex1.png
6,1,10,1,2,1,902.39,wordin3.png
6,1,11,1,1,1,842.68,wordin7.png
6,1,12,2,2,1,1335.1,wordex2_9.png
6,1,13,1,1,1,1179.41,wordin8.png
6,1,14,1,2,1,1519.78,wordex2_12.png
6,1,15,2,1,1,1195.96,wordex2_1.png
6,1,16,1,2,1,784.51,wordex2_10.png
6,1,17,2,1,1,1076.88,wordex2_7.png
6,1,18,1,2,1,1169.32,wordin2_2.png
6,1,19,2,1,1,773.62,wordex11.png
6,1,20,2,1,1,1481.99,wordin2_5.png
6,1,21,2,1,1,1126.35,wordin2_3.png
6,1,22,1,1,1,1106.81,wordex6.png
6,1,23,2,1,1,1487.16,wordex3.png
6,1,24,2,1,1,1307.55,wordex4.png
6,1,25,2,1,1,1559.92,wordex5.png
6,1,26,1,1,1,908.28,wordex2_2.png
6,1,27,1,1,1,584.64,wordin2.png
6,1,28,1,2,1,1332.96,wordin6.png
6,1,29,2,1,1,889.33,wordin4.png
6,1,30,2,1,1,885.5,wordin1.png
6,1,31,2,1,1,1338.04,wordin12.png
6,1,32,1,1,1,1318.42,wordin2_1.png
6,1,33,2,1,1,1658.86,wordin2_4.png
6,1,34,1,2,1,1135.16,wordin5.png
6,1,35,1,2,1,795.54,wordex2.png
6,1,36,2,1,1,1583.98,wordin2_10.png
6,1,37,1,2,1,1428.35,wordex7.png
6,1,38,1,2,1,944.62,wordex2_6.png
6,1,39,2,2,1,1333.08,wordin11.png
6,1,40,1,2,1,1137.39,wordin10.png
6,1,41,1,2,1,957.79,wordex8.png
6,1,42,2,1,1,874.17,wordex2_11.png
6,1,43,2,1,1,1406.46,wordin2_8.png
6,1,44,1,1,1,802.85,wordex2_4.png
6,1,45,2,1,1,1143.05,wordin2_7.png
6,1,46,2,1,1,1187.64,wordin2_6.png
6,1,47,1,1,1,655.93,wordex2_8.png
6,1,48,1,1,1,700.37,wordex2_3.png
7,1,1,2,1,1,1213.14,wordex9.png
7,1,2,1,2,1,1089.46,wordex2_7.png
7,1,3,2,1,1,709.86,wordex2_2.png
7,1,4,2,1,1,1482.23,wordex7.png
7,1,5,2,1,1,822.57,wordex2.png
7,1,6,1,1,1,890.97,wordin2_4.png
7,1,7,1,1,1,919.36,wordex5.png
7,1,8,2,2,1,1371.71,wordin9.png
7,1,9,1,1,1,983.89,wordin11.png
7,1,10,1,1,1,628.47,wordin2_3.png
7,1,11,2,1,1,1256.85,wordin2_9.png
7,1,12,1,1,1,773.19,wordex2_11.png
7,1,13,2,1,1,1353.51,wordin10.png
7,1,14,1,2,1,773.91,wordin2_7.png
7,1,15,1,1,1,810.3,wordin1.png
7,1,16,1,1,1,646.64,wordin2_8.png
7,1,17,2,1,1,571.01,wordex2_12.png
7,1,18,2,1,1,535.4,wordin2_1.png
7,1,19,2,1,1,787.74,wordex2_3.png
7,1,20,2,1,1,728.13,wordex2_6.png
7,1,21,2,1,1,788.45,wordex2_4.png
7,1,22,1,1,1,944.88,wordex10.png
7,1,23,1,1,1,901.18,wordex1.png
7,1,24,2,1,1,577.36,wordex8.png
7,1,25,1,2,1,1117.92,wordin2_11.png
7,1,26,2,1,1,1306.31,wordin2_2.png
7,1,27,2,2,1,1062.69,wordin6.png
7,1,28,1,1,1,1347.02,wordin2_10.png
7,1,29,1,1,1,751.44,wordex11.png
7,1,30,1,1,1,1395.8,wordin12.png
7,1,31,2,2,1,1352.17,wordin8.png
7,1,32,1,1,1,1204.56,wordex2_9.png
7,1,33,1,1,1,912.88,wordin2_6.png
7,1,34,1,1,1,869.28,wordin2_5.png
7,1,35,2,1,1,793.64,wordin3.png
7,1,36,2,1,1,758,wordin7.png
7,1,37,1,1,1,706.4,wordex12.png
7,1,38,2,1,1,1286.72,wordex2_10.png
7,1,39,2,1,1,1066.88,wordex2_8.png
7,1,40,1,1,1,775.46,wordin4.png
7,1,41,1,1,1,1035.82,wordex3.png
7,1,42,2,1,1,1448.2,wordex6.png
7,1,43,2,2,1,1684.58,wordex2_5.png
7,1,44,1,1,1,544.98,wordex4.png
7,1,45,1,2,1,1077.34,wordin2_12.png
7,1,46,1,1,1,1073.69,wordex2_1.png
7,1,47,2,2,1,1406.02,wordin5.png
7,1,48,2,1,1,994.41,wordin2.png
8,1,1,2,1,1,1066.98,wordex12.png
8,1,2,1,1,1,1439.11,wordex10.png
8,1,3,2,1,1,931.64,wordin1.png
8,1,4,1,2,1,1184.09,wordex2_3.png
8,1,5,1,2,1,1132.37,wordex2_1.png
8,1,6,1,2,1,1320.79,wordin2_1.png
8,1,7,1,1,1,1661.2,wordex2_5.png
8,1,8,2,2,1,1913.49,wordin5.png
8,1,9,2,2,1,1781.9,wordin12.png
8,1,10,2,1,1,1154.28,wordex11.png
8,1,11,2,2,1,1286.61,wordex9.png
8,1,12,1,2,1,1154.97,wordin2_11.png
8,1,13,1,2,1,2151.39,wordex8.png
8,1,14,2,2,1,1299.68,wordex2_12.png
8,1,15,1,2,1,1920.1,wordex2_8.png
8,1,16,2,2,1,2252.47,wordin2_7.png
8,1,17,1,1,1,856.61,wordex6.png
8,1,18,2,1,1,1711.87,wordin2_3.png
8,1,19,2,1,1,1412.21,wordex7.png
8,1,20,1,1,1,1104.63,wordin2_9.png
8,1,21,1,2,1,1180.97,wordin10.png
8,1,22,1,0,0,0,wordin2_4.png
8,1,23,1,2,1,1261.67,wordex5.png
8,1,24,1,1,1,1122.05,wordex2_9.png
8,1,25,2,2,1,1462.39,wordin6.png
8,1,26,1,2,1,1042.78,wordin2_5.png
8,1,27,2,2,1,615.18,wordex4.png
8,1,28,2,1,1,2171.49,wordin4.png
8,1,29,2,2,1,1503.88,wordin2_2.png
8,1,30,2,2,1,1012.22,wordin3.png
8,1,31,1,2,1,1488.62,wordin11.png
8,1,32,1,2,1,1012.85,wordin2_8.png
8,1,33,2,2,1,1817.38,wordex2_7.png
8,1,34,2,2,1,1421.71,wordin8.png
8,1,35,2,1,1,690.07,wordex2.png
8,1,36,2,1,1,726.47,wordin2_6.png
8,1,37,1,1,1,2234.86,wordin2.png
8,1,38,1,1,1,1023.23,wordex3.png
8,1,39,1,1,1,171.52,wordin2_10.png
8,1,40,1,1,1,1359.94,wordin7.png
8,1,41,1,1,1,1060.35,wordex2_4.png
8,1,42,2,1,1,3040.7,wordex1.png
8,1,43,2,1,1,693.01,wordex2_11.png
8,1,44,2,1,1,833.41,wordex2_10.png
8,1,45,1,1,1,941.75,wordin9.png
8,1,46,2,1,1,34.14,wordex2_6.png
8,1,47,1,1,1,158.32,wordin2_12.png
8,1,48,2,1,1,890.93,wordex2_2.png
9,1,1,1,1,1,787.22,wordex2_10.png
9,1,2,2,1,1,1623.54,wordin2_11.png
9,1,3,1,1,1,907.94,wordex12.png
9,1,4,1,1,1,1368.33,wordin2_6.png
9,1,5,1,1,1,1324.71,wordex2_6.png
9,1,6,2,1,1,2065.06,wordex2_5.png
9,1,7,1,1,1,2061.43,wordex7.png
9,1,8,1,1,1,1737.56,wordex4.png
9,1,9,2,1,1,2558.15,wordex2_3.png
9,1,10,1,2,1,1058.51,wordin6.png
9,1,11,2,2,1,1542.9,wordin2_1.png
9,1,12,2,1,1,1835.2,wordin7.png
9,1,13,2,2,1,1599.59,wordin2_8.png
9,1,14,1,2,1,1052.02,wordex2.png
9,1,15,1,1,1,1104.33,wordin2_2.png
9,1,16,1,1,1,868.76,wordex2_7.png
9,1,17,2,1,1,817.12,wordin2_5.png
9,1,18,1,1,1,1189.41,wordex2_2.png
9,1,19,1,0,0,0,wordin5.png
9,1,20,2,1,1,974.21,wordin2.png
9,1,21,1,1,1,1642.52,wordin8.png
9,1,22,1,1,1,1742.89,wordin2_7.png
9,1,23,2,1,1,1051.13,wordin2_9.png
9,1,24,1,2,1,2167.67,wordin1.png
9,1,25,1,1,1,1988.05,wordin12.png
9,1,26,1,1,1,848.36,wordex2_11.png
9,1,27,2,1,1,1452.81,wordin2_10.png
9,1,28,2,1,1,1961.19,wordex10.png
9,1,29,2,1,1,1549.55,wordex2_4.png
9,1,30,2,1,1,2065.93,wordex2_9.png
9,1,31,1,2,1,2614.25,wordex1.png
9,1,32,2,1,1,1530.67,wordin10.png
9,1,33,1,2,1,1126.96,wordex9.png
9,1,34,1,1,1,1003.34,wordin2_3.png
9,1,35,2,1,1,2487.76,wordex8.png
9,1,36,2,1,1,940.14,wordin9.png
9,1,37,2,1,1,3120.5,wordin2_4.png
9,1,38,2,1,1,1300.67,wordex2_8.png
9,1,39,2,1,1,1553.2,wordex5.png
9,1,40,2,1,1,1621.6,wordex3.png
9,1,41,2,2,1,1513.96,wordex6.png
9,1,42,1,1,1,1838.31,wordex11.png
9,1,43,2,2,1,1778.73,wordex2_1.png
9,1,44,1,1,1,1447.1,wordin4.png
9,1,45,2,1,1,1371.43,wordin11.png
9,1,46,2,2,1,1847.78,wordin2_12.png
9,1,47,1,1,1,724.17,wordin3.png
9,1,48,1,1,1,1240.48,wordex2_12.png
10,1,1,2,2,1,1239.84,wordin2_8.png
10,1,2,1,2,1,772.16,wordin10.png
10,1,3,1,2,1,864.32,wordin6.png
10,1,4,2,1,1,868.92,wordex2_1.png
10,1,5,1,2,1,833.3,wordex2_5.png
10,1,6,2,1,1,1077.68,wordin2_11.png
10,1,7,1,1,1,961.99,wordex2_12.png
10,1,8,2,1,1,1006.4,wordex1.png
10,1,9,2,2,1,1026.79,wordex4.png
10,1,10,1,1,1,823.06,wordex8.png
10,1,11,1,1,1,779.52,wordex2_6.png
10,1,12,2,1,1,911.79,wordin4.png
10,1,13,2,1,1,1060.24,wordin11.png
10,1,14,1,1,1,944.61,wordex7.png
10,1,15,2,2,1,956.89,wordex2_9.png
10,1,16,1,2,1,881.32,wordin7.png
10,1,17,2,1,1,1029.67,wordex3.png
10,1,18,2,1,1,1041.78,wordin2_4.png
10,1,19,1,2,1,910.41,wordin2_1.png
10,1,20,2,1,1,922.81,wordex2_7.png
10,1,21,1,1,1,975.13,wordex2_3.png
10,1,22,2,1,1,915.45,wordex5.png
10,1,23,1,1,1,775.88,wordin9.png
10,1,24,2,1,1,1124.27,wordin2_7.png
10,1,25,1,1,1,688.63,wordin2_2.png
10,1,26,2,1,1,781,wordex11.png
10,1,27,1,1,1,833.28,wordin8.png
10,1,28,1,2,1,805.71,wordin3.png
10,1,29,1,1,1,690.06,wordex2_4.png
10,1,30,1,2,1,734.46,wordex2_8.png
10,1,31,2,1,1,1082.83,wordin2_6.png
10,1,32,1,1,1,1183.16,wordex6.png
10,1,33,1,2,1,995.36,wordex2_10.png
10,1,34,2,1,1,887.83,wordin12.png
10,1,35,2,1,1,860.04,wordin1.png
10,1,36,2,1,1,976.63,wordex10.png
10,1,37,1,1,1,852.98,wordin2_9.png
10,1,38,2,1,1,825.34,wordin2_3.png
10,1,39,1,2,1,941.74,wordex9.png
10,1,40,1,1,1,786.02,wordin5.png
10,1,41,2,1,1,1422.48,wordin2_10.png
10,1,42,2,2,1,1106.75,wordin2_5.png
10,1,43,1,1,1,711.12,wordex2_2.png
10,1,44,1,1,1,867.48,wordin2.png
10,1,45,2,1,1,951.93,wordex12.png
10,1,46,1,2,1,1108.26,wordex2.png
10,1,47,2,1,1,1312.66,wordin2_12.png
10,1,48,2,1,1,868.99,wordex2_11.png
11,1,1,2,1,1,714.08,wordin7.png
11,1,2,1,1,1,1238.43,wordin2_8.png
11,1,3,2,1,1,1146.81,wordex7.png
11,1,4,2,1,1,1207.16,wordex2_12.png
11,1,5,1,2,1,1139.61,wordex2_9.png
11,1,6,1,1,1,1359.95,wordex2_7.png
11,1,7,2,1,1,1756.11,wordin6.png
11,1,8,2,2,1,1528.7,wordin2_1.png
11,1,9,2,1,1,1141.06,wordin9.png
11,1,10,2,1,1,985.4,wordex2_10.png
11,1,11,2,1,1,1325.79,wordex2.png
11,1,12,2,1,1,786.18,wordex2_5.png
11,1,13,2,1,1,1550.54,wordin2.png
11,1,14,1,1,1,754.86,wordin2_10.png
11,1,15,2,1,1,1159.27,wordex6.png
11,1,16,2,1,1,1187.6,wordex2_8.png
11,1,17,2,1,1,1136.02,wordin3.png
11,1,18,2,1,1,972.43,wordex9.png
11,1,19,1,1,1,696.74,wordex2_11.png
11,1,20,1,1,1,893.14,wordin12.png
11,1,21,2,1,1,769.53,wordex2_4.png
11,1,22,1,1,1,1189.67,wordin2_12.png
11,1,23,1,1,1,754.26,wordin1.png
11,1,24,1,1,1,1086.61,wordin2_5.png
11,1,25,1,1,1,906.95,wordex2_1.png
11,1,26,1,1,1,719.3,wordex11.png
11,1,27,1,1,1,779.73,wordin2_4.png
11,1,28,2,1,1,1144.04,wordex8.png
11,1,29,2,1,1,1380.41,wordin2_9.png
11,1,30,1,1,1,960.85,wordex3.png
11,1,31,1,1,1,1077.2,wordin2_7.png
11,1,32,2,1,1,865.55,wordin2_2.png
11,1,33,2,1,1,1661.98,wordin8.png
11,1,34,1,1,1,1482.32,wordex1.png
11,1,35,1,1,1,1694.65,wordin4.png
11,1,36,1,1,1,1747.08,wordex10.png
11,1,37,1,1,1,1623.26,wordin11.png
11,1,38,2,1,1,1715.75,wordin10.png
11,1,39,2,1,1,1336.16,wordex2_2.png
11,1,40,1,2,1,1196.54,wordin2_11.png
11,1,41,1,1,1,856.92,wordex12.png
11,1,42,2,1,1,1717.25,wordex2_6.png
11,1,43,1,1,1,1185.62,wordex4.png
11,1,44,1,1,1,1142,wordex5.png
11,1,45,2,1,1,1314.4,wordex2_3.png
11,1,46,1,1,1,1878.74,wordin2_6.png
11,1,47,1,1,1,1067.13,wordin2_3.png
11,1,48,2,1,1,1119.46,wordin5.png
12,1,1,1,1,1,1466.11,wordex7.png
12,1,2,1,1,1,998.59,wordex2_10.png
12,1,3,2,1,1,1955.04,wordin2_8.png
12,1,4,1,2,1,1071.35,wordex2_5.png
12,1,5,2,1,1,1563.78,wordex1.png
12,1,6,2,1,1,1768.15,wordex2_11.png
12,1,7,2,1,1,1532.49,wordex2_1.png
12,1,8,2,1,1,896.79,wordex4.png
12,1,9,2,1,1,805.22,wordex11.png
12,1,10,1,2,1,817.61,wordin10.png
12,1,11,1,1,1,637.99,wordin9.png
12,1,12,2,1,1,1690.27,wordin2_7.png
12,1,13,2,1,1,990.63,wordin2_4.png
12,1,14,1,1,1,891,wordin2.png
12,1,15,1,2,1,1023.37,wordin3.png
12,1,16,1,1,1,907.55,wordin2_9.png
12,1,17,1,2,1,928.14,wordex8.png
12,1,18,1,1,1,932.33,wordex2_4.png
12,1,19,2,2,1,1600.86,wordin11.png
12,1,20,2,2,1,1181.21,wordin2_12.png
12,1,21,1,1,1,841.58,wordex6.png
12,1,22,1,1,1,574.02,wordin2_1.png
12,1,23,2,1,1,1610.34,wordin2_10.png
12,1,24,2,1,1,998.73,wordin12.png
12,1,25,2,1,1,1579.11,wordin2_11.png
12,1,26,1,2,1,687.43,wordin6.png
12,1,27,1,2,1,1347.84,wordin7.png
12,1,28,2,2,1,1544.21,wordex10.png
12,1,29,2,2,1,1404.58,wordex12.png
12,1,30,2,2,1,936.91,wordin2_5.png
12,1,31,2,2,1,1613.1,wordex2_9.png
12,1,32,1,2,1,817.62,wordin5.png
12,1,33,2,1,1,1381.83,wordex2_7.png
12,1,34,1,2,1,978.44,wordin8.png
12,1,35,2,1,1,982.78,wordin2_3.png
12,1,36,1,1,1,899.18,wordex2_8.png
12,1,37,2,2,1,1559.46,wordin4.png
12,1,38,2,1,1,1491.83,wordex5.png
12,1,39,1,1,1,744.19,wordin2_2.png
12,1,40,2,2,1,1124.57,wordin1.png
12,1,41,1,1,1,840.93,wordex2_12.png
12,1,42,1,1,1,1085.34,wordex2_6.png
12,1,43,2,1,1,905.73,wordex3.png
12,1,44,1,2,1,814.13,wordex9.png
12,1,45,1,2,1,1074.45,wordex2_2.png
12,1,46,1,2,1,774.81,wordex2.png
12,1,47,2,2,1,1155.2,wordin2_6.png
12,1,48,1,2,1,839.34,wordex2_3.png
13,1,1,2,1,1,1160.76,wordex2_10.png
13,1,2,1,2,1,1333.16,wordin2_6.png
13,1,3,2,2,1,1321.51,wordin2_1.png
13,1,4,1,1,1,741.89,wordin2_10.png
13,1,5,1,1,1,1306.26,wordex2_1.png
13,1,6,1,1,1,1030.63,wordex2_9.png
13,1,7,2,1,1,1458.97,wordin2_2.png
13,1,8,2,1,1,2479.4,wordex2_6.png
13,1,9,2,1,1,955.77,wordex7.png
13,1,10,1,1,1,1128.08,wordex4.png
13,1,11,2,1,1,1580.3,wordin2.png
13,1,12,2,1,1,1592.89,wordin5.png
13,1,13,1,1,1,1653.21,wordin4.png
13,1,14,1,1,1,889.53,wordin2_7.png
13,1,15,2,1,1,1525.92,wordin8.png
13,1,16,1,1,1,1074.27,wordin2_3.png
13,1,17,2,1,1,1358.66,wordin2_9.png
13,1,18,1,2,1,1003.01,wordin2_5.png
13,1,19,2,1,1,999.47,wordex2_3.png
13,1,20,2,1,1,1115.75,wordin7.png
13,1,21,1,1,1,1184.18,wordex11.png
13,1,22,2,2,1,1460.53,wordex9.png
13,1,23,1,1,1,688.93,wordin2_4.png
13,1,24,1,2,1,1093.23,wordex1.png
13,1,25,1,1,1,889.67,wordin2_8.png
13,1,26,2,2,1,1437.83,wordex2.png
13,1,27,2,1,1,826.33,wordex6.png
13,1,28,1,2,1,1566.74,wordex2_7.png
13,1,29,1,1,1,883.11,wordin11.png
13,1,30,1,1,1,1407.46,wordin1.png
13,1,31,1,1,1,1731.89,wordex5.png
13,1,32,2,1,1,1528.22,wordin6.png
13,1,33,1,1,1,956.62,wordex2_11.png
13,1,34,2,1,1,1528.95,wordex2_5.png
13,1,35,2,1,1,973.29,wordex8.png
13,1,36,1,1,1,1441.76,wordex12.png
13,1,37,1,1,1,886.03,wordex3.png
13,1,38,1,2,1,1482.47,wordin2_11.png
13,1,39,2,1,1,846.83,wordex2_8.png
13,1,40,1,1,1,1715.24,wordin12.png
13,1,41,2,2,1,879.39,wordin10.png
13,1,42,2,2,1,939.94,wordex2_12.png
13,1,43,2,1,1,1976.29,wordin3.png
13,1,44,1,2,1,876.63,wordin2_12.png
13,1,45,2,1,1,889.05,wordex2_2.png
13,1,46,2,1,1,1125.41,wordex2_4.png
13,1,47,1,1,1,753.77,wordex10.png
13,1,48,2,1,1,1078.12,wordin9.png
14,1,1,1,2,1,1175.8,wordex8.png
14,1,2,2,2,1,1427.94,wordin2_12.png
14,1,3,1,2,1,1160.54,wordex2.png
14,1,4,2,1,1,1844.94,wordin2_4.png
14,1,5,2,2,1,1265.25,wordex2_9.png
14,1,6,2,2,1,1181.65,wordin11.png
14,1,7,1,2,1,1298,wordin3.png
14,1,8,1,2,1,1046.39,wordex2_2.png
14,1,9,2,2,1,1906.73,wordin2_11.png
14,1,10,1,2,1,951.05,wordex2_5.png
14,1,11,2,2,1,1395.48,wordin12.png
14,1,12,2,1,1,1999.81,wordex11.png
14,1,13,1,2,1,1372.14,wordin8.png
14,1,14,2,1,1,1344.58,wordex1.png
14,1,15,2,2,1,1772.95,wordex4.png
14,1,16,2,2,1,1865.33,wordex12.png
14,1,17,1,2,1,1005.49,wordex2_6.png
14,1,18,1,1,1,1554.02,wordin2_2.png
14,1,19,1,0,0,0,wordex2_4.png
14,1,20,2,2,1,1362.77,wordex5.png
14,1,21,2,0,0,0,wordin2_5.png
14,1,22,2,2,1,1123.49,wordex2_11.png
14,1,23,2,1,1,2103.88,wordin2_7.png
14,1,24,2,2,1,1604.22,wordex10.png
14,1,25,1,1,1,648.59,wordex2_8.png
14,1,26,1,0,0,0,wordin2.png
14,1,27,1,2,1,1289.34,wordin2_1.png
14,1,28,1,1,1,1693.74,wordex2_3.png
14,1,29,1,2,1,1306.07,wordin5.png
14,1,30,2,1,1,1174.38,wordex2_7.png
14,1,31,2,1,1,1250.8,wordin2_8.png
14,1,32,1,0,0,0,wordin7.png
14,1,33,2,2,1,1867.52,wordin2_3.png
14,1,34,1,1,1,559.86,wordin9.png
14,1,35,2,1,1,1188.28,wordex2_1.png
14,1,36,1,1,1,1088.66,wordin10.png
14,1,37,1,2,1,1020.97,wordex9.png
14,1,38,1,2,1,2409.4,wordin6.png
14,1,39,1,0,0,0,wordin2_9.png
14,1,40,2,1,1,1138.1,wordex3.png
14,1,41,1,2,1,766.5,wordex2_10.png
14,1,42,2,1,1,986.78,wordin2_10.png
14,1,43,2,1,1,975.2,wordin4.png
14,1,44,2,0,0,0,wordin1.png
14,1,45,1,1,1,599.94,wordex2_12.png
14,1,46,1,1,1,772.25,wordex6.png
14,1,47,1,1,1,1080.44,wordex7.png
14,1,48,2,2,1,1797,wordin2_6.png
15,1,1,1,1,1,840.62,wordin2_7.png
15,1,2,2,1,1,852.97,wordin6.png
15,1,3,1,2,1,1193.31,wordex4.png
15,1,4,2,1,1,893.53,wordex8.png
15,1,5,2,2,1,1034.07,wordex2.png
15,1,6,1,2,1,958.48,wordin11.png
15,1,7,1,1,1,882.86,wordex5.png
15,1,8,2,1,1,775.2,wordex2_12.png
15,1,9,2,2,1,1267.59,wordin10.png
15,1,10,2,1,1,751.94,wordin7.png
15,1,11,1,2,1,852.36,wordex3.png
15,1,12,1,1,1,776.66,wordex11.png
15,1,13,1,2,1,749.02,wordin4.png
15,1,14,2,2,1,1129.39,wordin3.png
15,1,15,2,1,1,1005.83,wordin2.png
15,1,16,2,1,1,882.2,wordin2_1.png
15,1,17,2,1,1,758.57,wordex2_3.png
15,1,18,2,1,1,834.96,wordex2_8.png
15,1,19,2,1,1,1007.13,wordin5.png
15,1,20,1,1,1,718.31,wordex2_11.png
15,1,21,2,1,1,1002.72,wordin8.png
15,1,22,2,1,1,959.04,wordex2_5.png
15,1,23,1,1,1,803.49,wordex1.png
15,1,24,2,1,1,935.78,wordex2_10.png
15,1,25,1,1,1,836.18,wordin1.png
15,1,26,1,1,1,608.58,wordin12.png
15,1,27,1,1,1,620.92,wordex2_7.png
15,1,28,1,2,1,841.29,wordex2_1.png
15,1,29,1,2,1,1061.69,wordin2_5.png
15,1,30,2,1,1,786.08,wordex6.png
15,1,31,1,2,1,766.41,wordin2_12.png
15,1,32,1,2,1,874.82,wordin2_4.png
15,1,33,2,1,1,927.22,wordex2_4.png
15,1,34,2,1,1,1155.33,wordin2_2.png
15,1,35,1,1,1,775.94,wordin2_6.png
15,1,36,1,1,1,908.26,wordin2_10.png
15,1,37,1,1,1,872.63,wordin2_3.png
15,1,38,1,1,1,677.08,wordin2_8.png
15,1,39,2,1,1,889.38,wordin9.png
15,1,40,1,1,1,757.81,wordex12.png
15,1,41,2,1,1,1114.19,wordex9.png
15,1,42,1,2,1,902.56,wordex2_9.png
15,1,43,2,1,1,810.88,wordin2_9.png
15,1,44,1,1,1,871.31,wordin2_11.png
15,1,45,2,1,1,1547.64,wordex2_2.png
15,1,46,2,1,1,1103.98,wordex2_6.png
15,1,47,1,1,1,980.4,wordex10.png
15,1,48,2,1,1,936.77,wordex7.png
16,2,1,2,2,1,1170.67,nonwex4.png
16,2,2,2,2,1,798.89,nonwin2_5.png
16,2,3,2,2,1,866.96,nonwin10.png
16,2,4,2,2,1,903.41,nonwex2_6.png
16,2,5,1,2,1,683.67,nonwin2_7.png
16,2,6,2,2,1,895.96,nonwin7.png
16,2,7,2,2,1,852.22,nonwin3.png
16,2,8,1,2,1,864.44,nonwex5.png
16,2,9,2,2,1,988.72,nonwin5.png
16,2,10,1,1,1,920.93,nonwin2_12.png
16,2,11,2,2,1,1157.16,nonwin2_4.png
16,2,12,2,2,1,921.4,nonwex2_4.png
16,2,13,1,2,1,709.66,nonwin4.png
16,2,14,2,2,1,833.94,nonwin2_8.png
16,2,15,1,2,1,870.15,nonwin2_11.png
16,2,16,1,1,1,1154.42,nonwex7.png
16,2,17,1,2,1,838.65,nonwin2.png
16,2,18,1,2,1,978.75,nonwex2_9.png
16,2,19,1,2,1,927.19,nonwex2_11.png
16,2,20,1,2,1,1115.2,nonwex2_8.png
16,2,21,2,2,1,1191.64,nonwin12.png
16,2,22,2,1,1,1403.93,nonwex2_2.png
16,2,23,1,2,1,1128.19,nonwex8.png
16,2,24,2,2,1,1036.4,nonwin2_10.png
16,2,25,1,2,1,992.66,nonwex2.png
16,2,26,2,1,1,1684.89,nonwex1.png
16,2,27,2,1,1,1361.15,nonwin2_9.png
16,2,28,2,2,1,1189.46,nonwin8.png
16,2,29,2,2,1,1153.62,nonwex11.png
16,2,30,1,1,1,941.86,nonwex10.png
16,2,31,2,1,1,954.15,nonwin2_2.png
16,2,32,2,1,1,966.44,nonwex12.png
16,2,33,1,2,1,762.39,nonwex2_1.png
16,2,34,1,2,1,878.89,nonwin9.png
16,2,35,2,2,1,1042.9,nonwex2_7.png
16,2,36,1,2,1,927.45,nonwex2_12.png
16,2,37,1,2,1,1035.64,nonwin2_6.png
16,2,38,1,2,1,935.89,nonwex2_5.png
16,2,39,2,2,1,1204.2,nonwin2_1.png
16,2,40,1,2,1,720.39,nonwin1.png
16,2,41,1,1,1,836.66,nonwex3.png
16,2,42,1,2,1,816.88,nonwex2_3.png
16,2,43,1,1,1,773.13,nonwex9.png
16,2,44,2,2,1,721.33,nonwex6.png
16,2,45,1,2,1,861.63,nonwin6.png
16,2,46,2,2,1,1033.94,nonwex2_10.png
16,2,47,2,2,1,910.16,nonwin2_3.png
16,2,48,1,2,1,610.36,nonwin11.png
17,2,1,2,1,1,1057.04,nonwex2_2.png
17,2,2,2,1,1,1653.43,nonwex12.png
17,2,3,1,2,1,1321.76,nonwin6.png
17,2,4,1,2,1,1373.93,nonwin12.png
17,2,5,2,1,1,1394.5,nonwin9.png
17,2,6,1,1,1,870.85,nonwex3.png
17,2,7,1,1,1,747.21,nonwin2.png
17,2,8,1,2,1,823.57,nonwex11.png
17,2,9,2,1,1,1067.9,nonwin4.png
17,2,10,1,1,1,768.3,nonwin2_2.png
17,2,11,1,2,1,804.68,nonwin1.png
17,2,12,2,1,1,1057.04,nonwin3.png
17,2,13,1,1,1,733.41,nonwex8.png
17,2,14,1,1,1,1233.81,nonwin7.png
17,2,15,2,1,1,926.13,nonwex2_4.png
17,2,16,2,1,1,922.48,nonwin2_9.png
17,2,17,2,2,1,814.87,nonwex10.png
17,2,18,2,2,1,907.19,nonwin10.png
17,2,19,1,2,1,879.45,nonwex2_11.png
17,2,20,2,2,1,1355.97,nonwex2_10.png
17,2,21,1,1,1,1104.34,nonwin2_11.png
17,2,22,1,1,1,1052.74,nonwin2_8.png
17,2,23,1,2,1,985.12,nonwin8.png
17,2,24,2,1,1,1205.45,nonwex2_12.png
17,2,25,1,2,1,1049.85,nonwex2_7.png
17,2,26,1,2,1,1766.18,nonwex2_9.png
17,2,27,2,1,1,946.51,nonwex7.png
17,2,28,1,2,1,830.84,nonwin2_7.png
17,2,29,1,1,1,739.3,nonwex2_8.png
17,2,30,2,1,1,1018.25,nonwex9.png
17,2,31,2,2,1,838.7,nonwin2_6.png
17,2,32,1,2,1,803.07,nonwex2_6.png
17,2,33,1,2,1,2319.44,nonwex6.png
17,2,34,1,1,1,1315.54,nonwin2_4.png
17,2,35,1,2,1,1288.17,nonwex4.png
17,2,36,1,1,1,804.52,nonwex2.png
17,2,37,2,1,1,984.86,nonwex2_1.png
17,2,38,1,2,1,1317.23,nonwin2_1.png
17,2,39,2,1,1,1009.58,nonwin5.png
17,2,40,2,2,1,1941.93,nonwin2_5.png
17,2,41,2,1,1,1018.29,nonwin11.png
17,2,42,2,1,1,862.67,nonwex1.png
17,2,43,2,1,1,1403.04,nonwex2_3.png
17,2,44,2,2,1,1615.41,nonwin2_12.png
17,2,45,2,1,1,1099.75,nonwin2_3.png
17,2,46,2,1,1,1328.17,nonwex5.png
17,2,47,1,2,1,1340.53,nonwex2_5.png
17,2,48,2,1,1,944.87,nonwin2_10.png
18,2,1,1,2,1,783.3,nonwex2_3.png
18,2,2,2,1,1,1131.64,nonwex1.png
18,2,3,2,2,1,1247.99,nonwin2_3.png
18,2,4,1,2,1,1140.42,nonwin2_7.png
18,2,5,1,1,1,744.76,nonwex2.png
18,2,6,1,2,1,741.15,nonwex2_11.png
18,2,7,2,2,1,953.47,nonwex2_7.png
18,2,8,1,1,1,861.89,nonwin6.png
18,2,9,2,2,1,1034.03,nonwin2_4.png
18,2,10,2,2,1,1174.57,nonwex4.png
18,2,11,2,2,1,946.92,nonwex12.png
18,2,12,1,1,1,839.36,nonwin2_6.png
18,2,13,2,2,1,923.71,nonwin2_2.png
18,2,14,1,1,1,728.09,nonwex7.png
18,2,15,1,1,1,876.46,nonwex9.png
18,2,16,1,2,1,728.82,nonwin2_11.png
18,2,17,2,2,1,869.18,nonwex2_2.png
18,2,18,1,1,1,665.52,nonwin2_12.png
18,2,19,1,1,1,901.93,nonwin4.png
18,2,20,1,2,1,722.29,nonwin9.png
18,2,21,1,1,1,934.66,nonwex5.png
18,2,22,2,2,1,771.01,nonwin2_5.png
18,2,23,2,2,1,1031.36,nonwex2_6.png
18,2,24,2,2,1,675.53,nonwin2_1.png
18,2,25,1,1,1,1000.13,nonwex2_8.png
18,2,26,2,2,1,852.47,nonwin2_8.png
18,2,27,1,1,1,976.87,nonwin11.png
18,2,28,2,2,1,981.22,nonwin7.png
18,2,29,2,2,1,721.54,nonwin2_9.png
18,2,30,2,1,1,1029.91,nonwex2_10.png
18,2,31,2,2,1,802.29,nonwin8.png
18,2,32,2,2,1,614.64,nonwex6.png
18,2,33,1,1,1,754.97,nonwex10.png
18,2,34,1,2,1,871.36,nonwex2_12.png
18,2,35,1,2,1,875.8,nonwex2_9.png
18,2,36,2,2,1,768.07,nonwin3.png
18,2,37,2,2,1,756.53,nonwin5.png
18,2,38,1,1,1,776.83,nonwex2_5.png
18,2,39,1,2,1,909.02,nonwex8.png
18,2,40,1,1,1,769.57,nonwin2.png
18,2,41,2,2,1,629.96,nonwex11.png
18,2,42,2,2,1,650.27,nonwex2_4.png
18,2,43,1,1,1,990.7,nonwex3.png
18,2,44,2,2,1,651.06,nonwin12.png
18,2,45,1,2,1,839.42,nonwin1.png
18,2,46,1,2,1,555.73,nonwex2_1.png
18,2,47,2,1,1,720.18,nonwin10.png
18,2,48,2,2,1,708.51,nonwin2_10.png
19,2,1,1,1,1,1142.31,nonwex12.png
19,2,2,1,2,1,1546.73,nonwex1.png
19,2,3,2,1,1,1239.09,nonwin2.png
19,2,4,1,2,1,1155.44,nonwex2_7.png
19,2,5,2,2,1,1319.8,nonwex2_1.png
19,2,6,1,1,1,940.14,nonwex2_6.png
19,2,7,2,2,1,1128.56,nonwex10.png
19,2,8,1,1,1,900.97,nonwex2_10.png
19,2,9,1,1,1,849.34,nonwin2_2.png
19,2,10,2,2,1,1189.61,nonwin2_7.png
19,2,11,2,2,1,1233.83,nonwin9.png
19,2,12,2,2,1,1174.41,nonwin11.png
19,2,13,1,1,1,962.6,nonwin2_5.png
19,2,14,2,1,1,911.15,nonwex9.png
19,2,15,2,1,1,1283.51,nonwex3.png
19,2,16,1,1,1,711.87,nonwin7.png
19,2,17,2,2,1,868.21,nonwin2_11.png
19,2,18,1,1,1,848.6,nonwex6.png
19,2,19,1,1,1,933,nonwin2_8.png
19,2,20,1,1,1,761.31,nonwin12.png
19,2,21,2,2,1,893.75,nonwex2_9.png
19,2,22,1,1,1,1162.11,nonwin2_3.png
19,2,23,2,1,1,862.43,nonwex5.png
19,2,24,2,2,1,1114.78,nonwex2.png
19,2,25,2,2,1,1159.19,nonwex7.png
19,2,26,1,1,1,1243.53,nonwex2_2.png
19,2,27,1,1,1,799.95,nonwin2_10.png
19,2,28,1,2,1,1004.08,nonwin2_1.png
19,2,29,2,2,1,1400.66,nonwex2_11.png
19,2,30,2,1,1,796.99,nonwex2_5.png
19,2,31,2,2,1,1393.35,nonwin4.png
19,2,32,2,2,1,1141.75,nonwin1.png
19,2,33,1,1,1,674.06,nonwin2_4.png
19,2,34,2,1,1,822.43,nonwin6.png
19,2,35,2,1,1,770.87,nonwin2_6.png
19,2,36,1,2,1,903.21,nonwin5.png
19,2,37,2,2,1,1219.59,nonwex2_3.png
19,2,38,1,1,1,879.93,nonwex11.png
19,2,39,2,1,1,828.32,nonwex8.png
19,2,40,1,1,1,816.64,nonwin2_9.png
19,2,41,1,1,1,1133.1,nonwin8.png
19,2,42,1,1,1,985.45,nonwex4.png
19,2,43,1,2,1,1101.55,nonwin3.png
19,2,44,2,2,1,1002.16,nonwin2_12.png
19,2,45,1,2,1,1014.57,nonwin10.png
19,2,46,1,2,1,1106.91,nonwex2_4.png
19,2,47,2,1,1,1199.24,nonwex2_8.png
19,2,48,2,2,1,1003.62,nonwex2_12.png
20,2,1,2,2,1,1302.4,nonwin8.png
20,2,2,2,1,1,1138.78,nonwin2_1.png
20,2,3,2,1,1,943.14,nonwin2_4.png
20,2,4,1,2,1,683.44,nonwex2_2.png
20,2,5,2,2,1,1623.89,nonwex8.png
20,2,6,1,2,1,924.25,nonwex7.png
20,2,7,1,2,1,768.57,nonwex2_1.png
20,2,8,1,2,1,940.91,nonwex5.png
20,2,9,1,2,1,729.28,nonwex2_4.png
20,2,10,2,2,1,693.71,nonwex2_6.png
20,2,11,1,2,1,634.06,nonwin2_6.png
20,2,12,1,2,1,878.41,nonwin10.png
20,2,13,1,2,1,858.54,nonwin4.png
20,2,14,1,2,1,1311.15,nonwin5.png
20,2,15,1,2,1,1035.51,nonwin2_12.png
20,2,16,2,2,1,671.93,nonwin6.png
20,2,17,2,1,1,788.26,nonwex2_9.png
20,2,18,2,2,1,1448.59,nonwex2_7.png
20,2,19,1,1,1,628.95,nonwex2_12.png
20,2,20,2,2,1,833.41,nonwin2_11.png
20,2,21,2,2,1,1061.69,nonwex2_11.png
20,2,22,1,2,1,890.08,nonwin2_9.png
20,2,23,1,2,1,630.47,nonwin9.png
20,2,24,1,2,1,738.81,nonwin11.png
20,2,25,2,2,1,1023.22,nonwex3.png
20,2,26,1,2,1,787.6,nonwex10.png
20,2,27,1,2,1,1975.93,nonwin2_10.png
20,2,28,1,1,1,684.16,nonwex2_10.png
20,2,29,1,1,1,920.73,nonwex1.png
20,2,30,1,2,1,669.09,nonwex2_3.png
20,2,31,1,1,1,721.39,nonwex9.png
20,2,32,2,1,1,1277.78,nonwex2_8.png
20,2,33,2,2,1,802.1,nonwin2_8.png
20,2,34,2,2,1,686.53,nonwex2.png
20,2,35,2,2,1,994.94,nonwex4.png
20,2,36,1,2,1,695.22,nonwin3.png
20,2,37,2,2,1,739.57,nonwex11.png
20,2,38,2,2,1,991.99,nonwin7.png
20,2,39,2,1,1,1220.37,nonwin2_2.png
20,2,40,2,2,1,728.7,nonwex6.png
20,2,41,1,2,1,685.12,nonwin2_3.png
20,2,42,2,2,1,1209.41,nonwin2.png
20,2,43,2,1,1,973.61,nonwin2_7.png
20,2,44,2,2,1,818.14,nonwin12.png
20,2,45,2,1,1,1014.57,nonwex2_5.png
20,2,46,2,2,1,706.88,nonwin1.png
20,2,47,1,2,1,599.25,nonwin2_5.png
20,2,48,1,1,1,883.62,nonwex12.png
21,2,1,1,2,1,1199.41,nonwex2_11.png
21,2,2,2,1,1,899.68,nonwex2_12.png
21,2,3,1,2,1,1072.1,nonwin8.png
21,2,4,1,1,1,788.48,nonwex2_8.png
21,2,5,1,1,1,704.86,nonwex2_9.png
21,2,6,1,1,1,685.18,nonwin2_2.png
21,2,7,2,2,1,1073.62,nonwin2_6.png
21,2,8,1,2,1,1093.94,nonwex2.png
21,2,9,2,2,1,1138.36,nonwin3.png
21,2,10,2,1,1,1134.69,nonwex2_10.png
21,2,11,1,2,1,722.85,nonwin2_7.png
21,2,12,2,2,1,1167.46,nonwin2_9.png
21,2,13,1,2,1,1179.74,nonwin7.png
21,2,14,1,1,1,760.19,nonwin2_1.png
21,2,15,2,1,1,1116.53,nonwin2_10.png
21,2,16,1,1,1,912.94,nonwex2_5.png
21,2,17,1,1,1,789.29,nonwex3.png
21,2,18,2,1,1,1281.63,nonwex2_4.png
21,2,19,1,2,1,1406.02,nonwex2_6.png
21,2,20,2,1,1,1002.4,nonwex2_2.png
21,2,21,1,2,1,806.75,nonwex2_7.png
21,2,22,1,1,1,899.12,nonwin12.png
21,2,23,1,1,1,911.46,nonwin2_4.png
21,2,24,1,1,1,723.88,nonwex11.png
21,2,25,2,2,1,792.22,nonwin2_3.png
21,2,26,1,1,1,828.36,nonwin2.png
21,2,27,2,1,1,889,nonwex5.png
21,2,28,2,2,1,1677.33,nonwin9.png
21,2,29,1,1,1,1441.7,nonwin2_11.png
21,2,30,1,2,1,990.01,nonwex8.png
21,2,31,1,1,1,794.44,nonwin6.png
21,2,32,2,2,1,838.75,nonwex2_3.png
21,2,33,1,1,1,763.21,nonwex6.png
21,2,34,2,1,1,1431.57,nonwex12.png
21,2,35,2,2,1,1539.9,nonwin2_12.png
21,2,36,1,2,1,1472.32,nonwex4.png
21,2,37,1,2,1,1076.68,nonwin1.png
21,2,38,2,2,1,1441.03,nonwex2_1.png
21,2,39,2,2,1,1245.39,nonwin10.png
21,2,40,2,2,1,929.72,nonwex10.png
21,2,41,2,1,1,901.94,nonwin2_5.png
21,2,42,2,1,1,922.51,nonwex1.png
21,2,43,2,1,1,1254.84,nonwin11.png
21,2,44,2,1,1,875.22,nonwex7.png
21,2,45,2,1,1,1007.64,nonwin4.png
21,2,46,1,1,1,803.95,nonwin2_8.png
21,2,47,2,1,1,1056.34,nonwex9.png
21,2,48,2,2,1,1468.74,nonwin5.png
22,2,1,2,2,1,1059.55,nonwin8.png
22,2,2,1,2,1,2147.59,nonwex10.png
22,2,3,2,2,1,2320.88,nonwin2_1.png
22,2,4,2,2,1,1656.91,nonwin2_5.png
22,2,5,1,2,1,1654.16,nonwin4.png
22,2,6,1,1,1,2003.56,nonwex2_12.png
22,2,7,1,2,1,1083.58,nonwin2_11.png
22,2,8,2,2,1,1896.93,nonwin2_4.png
22,2,9,2,1,1,2150.15,nonwex1.png
22,2,10,2,1,1,1790.13,nonwin2_2.png
22,2,11,1,2,1,1931.55,nonwex2_3.png
22,2,12,1,2,1,1542.23,nonwex2.png
22,2,13,2,1,1,1486.24,nonwex2_10.png
22,2,14,1,2,1,1662.24,nonwin2_6.png
22,2,15,1,1,1,1494.24,nonwex7.png
22,2,16,2,2,1,1214.24,nonwin7.png
22,2,17,2,2,1,1646.26,nonwin3.png
22,2,18,2,1,1,1590.23,nonwin10.png
22,2,19,1,1,1,1344.89,nonwin1.png
22,2,20,2,2,1,1288.89,nonwin2_3.png
22,2,21,2,2,1,1104.81,nonwin2_10.png
22,2,22,2,2,1,2240.9,nonwex12.png
22,2,23,1,2,1,880.92,nonwex2_8.png
22,2,24,2,2,1,1912.92,nonwin2_8.png
22,2,25,1,2,1,1502.1,nonwin2.png
22,2,26,2,2,1,1638.24,nonwex4.png
22,2,27,1,1,1,1315.57,nonwex9.png
22,2,28,2,2,1,1611.54,nonwex2_7.png
22,2,29,2,2,1,1792.98,nonwex6.png
22,2,30,1,2,1,2091.58,nonwex2_5.png
22,2,31,1,2,1,1851.53,nonwex5.png
22,2,32,2,2,1,1523.57,nonwin12.png
22,2,33,1,2,1,1171.56,nonwex2_9.png
22,2,34,2,2,1,1595.52,nonwin5.png
22,2,35,2,2,1,2787.59,nonwex2_2.png
22,2,36,1,2,1,1315.59,nonwex2_1.png
22,2,37,1,2,1,1176.91,nonwin9.png
22,2,38,1,1,1,1496.87,nonwin2_12.png
22,2,39,2,2,1,1342.26,nonwin2_9.png
22,2,40,1,2,1,1040.92,nonwex2_11.png
22,2,41,1,2,1,1064.9,nonwex3.png
22,2,42,2,2,1,1488.91,nonwex2_4.png
22,2,43,1,2,1,1312.91,nonwin11.png
22,2,44,1,2,1,1496.91,nonwin2_7.png
22,2,45,1,2,1,2184.91,nonwex8.png
22,2,46,2,2,1,1352.74,nonwex11.png
22,2,47,1,2,1,1518.26,nonwin6.png
22,2,48,2,2,1,2480.87,nonwex2_6.png
23,2,1,2,2,1,1827.58,nonwin2_7.png
23,2,2,1,2,1,1099.57,nonwin2_1.png
23,2,3,1,1,1,899.59,nonwex2_10.png
23,2,4,1,1,1,1387.57,nonwin2_3.png
23,2,5,2,2,1,1499.57,nonwex2_1.png
23,2,6,2,2,1,1891.59,nonwex2_5.png
23,2,7,2,1,1,2315.59,nonwin2.png
23,2,8,2,1,1,1619.58,nonwex3.png
23,2,9,1,2,1,1632.89,nonwex2_2.png
23,2,10,1,1,1,1040.89,nonwin2_10.png
23,2,11,1,1,1,1158.23,nonwin10.png
23,2,12,2,2,1,1563.57,nonwin2_11.png
23,2,13,1,2,1,1315.58,nonwin2_2.png
23,2,14,1,1,1,1544.89,nonwex6.png
23,2,15,1,1,1,2003.6,nonwex2_7.png
23,2,16,2,2,1,1635.59,nonwin6.png
23,2,17,1,1,1,1419.56,nonwin2_4.png
23,2,18,1,1,1,1603.6,nonwin2_5.png
23,2,19,1,2,1,963.48,nonwin8.png
23,2,20,2,1,1,1683.58,nonwex2.png
23,2,21,2,1,1,1267.48,nonwex7.png
23,2,22,2,2,1,1846.24,nonwin9.png
23,2,23,1,2,1,1150.24,nonwex12.png
23,2,24,2,2,1,1534.23,nonwex2_9.png
23,2,25,2,1,1,1342.19,nonwin2_6.png
23,2,26,1,1,1,1366.23,nonwin2_8.png
23,2,27,1,1,1,1630.23,nonwex4.png
23,2,28,2,2,1,2318.24,nonwex2_8.png
23,2,29,2,2,1,1891.57,nonwex5.png
23,2,30,1,1,1,1358.23,nonwex11.png
23,2,31,2,2,1,1886.22,nonwin2_12.png
23,2,32,1,1,1,1230.24,nonwin7.png
23,2,33,2,1,1,1670.14,nonwin11.png
23,2,34,2,2,1,2022.23,nonwex2_3.png
23,2,35,1,1,1,1062.24,nonwin3.png
23,2,36,1,1,1,1838.23,nonwex1.png
23,2,37,2,1,1,1779.56,nonwex8.png
23,2,38,2,1,1,2246.24,nonwex2_11.png
23,2,39,1,1,1,2182.24,nonwex2_4.png
23,2,40,2,2,1,1694.26,nonwin4.png
23,2,41,2,2,1,1934.22,nonwex9.png
23,2,42,1,1,1,1310.24,nonwex2_6.png
23,2,43,1,1,1,1174.23,nonwin5.png
23,2,44,2,2,1,1550.23,nonwin1.png
23,2,45,2,2,1,1640.9,nonwex10.png
23,2,46,2,1,1,1184.88,nonwex2_12.png
23,2,47,1,2,1,1542.23,nonwin2_9.png
23,2,48,1,2,1,1758.23,nonwin12.png
24,2,1,1,2,1,895.27,nonwex2_2.png
24,2,2,2,2,1,860.63,nonwin2_1.png
24,2,3,2,2,1,1468.64,nonwin6.png
24,2,4,2,2,1,1284.65,nonwex2_7.png
24,2,5,1,2,1,1068.64,nonwin5.png
24,2,6,2,1,1,791.27,nonwin2_4.png
24,2,7,2,1,1,935.2,nonwin12.png
24,2,8,1,1,1,663.32,nonwin2_9.png
24,2,9,1,1,1,607.3,nonwex7.png
24,2,10,2,1,1,927.26,nonwin8.png
24,2,11,1,1,1,844.66,nonwin4.png
24,2,12,2,2,1,1201.99,nonwin2_7.png
24,2,13,1,1,1,833.92,nonwex1.png
24,2,14,2,1,1,1089.89,nonwex2_5.png
24,2,15,1,2,1,913.97,nonwin11.png
24,2,16,2,1,1,969.87,nonwin2_8.png
24,2,17,2,2,1,1047.32,nonwex2_9.png
24,2,18,2,2,1,1063.3,nonwin7.png
24,2,19,1,2,1,831.31,nonwin2_3.png
24,2,20,2,2,1,1129.99,nonwex2_8.png
24,2,21,2,2,1,1329.96,nonwin2_11.png
24,2,22,2,1,1,729.95,nonwex6.png
24,2,23,1,1,1,705.97,nonwex12.png
24,2,24,1,2,1,793.98,nonwin10.png
24,2,25,2,1,1,1065.98,nonwex2.png
24,2,26,2,1,1,764.65,nonwin2_2.png
24,2,27,1,1,1,820.65,nonwin2_5.png
24,2,28,2,2,1,828.53,nonwex2_11.png
24,2,29,1,1,1,788.63,nonwin2_10.png
24,2,30,1,1,1,868.63,nonwex2_1.png
24,2,31,1,1,1,628.63,nonwex2_12.png
24,2,32,1,2,1,964.64,nonwex2_4.png
24,2,33,2,2,1,1201.97,nonwin1.png
24,2,34,1,2,1,857.98,nonwex2_3.png
24,2,35,2,1,1,724.66,nonwin2.png
24,2,36,1,1,1,844.67,nonwin2_12.png
24,2,37,2,1,1,940.61,nonwex3.png
24,2,38,1,2,1,828.51,nonwex10.png
24,2,39,1,1,1,708.56,nonwex2_10.png
24,2,40,1,2,1,900.62,nonwin3.png
24,2,41,2,2,1,1220.64,nonwex11.png
24,2,42,1,2,1,769.95,nonwin9.png
24,2,43,1,1,1,769.97,nonwin2_6.png
24,2,44,2,1,1,1111.29,nonwex4.png
24,2,45,2,2,1,1015.19,nonwex2_6.png
24,2,46,2,1,1,767.31,nonwex8.png
24,2,47,1,1,1,767.31,nonwex9.png
24,2,48,1,1,1,1324.65,nonwex5.png
25,2,1,2,1,1,1033.43,nonwin3.png
25,2,2,1,2,1,849.5,nonwex2_9.png
25,2,3,1,2,1,1117.14,nonwex11.png
25,2,4,1,2,1,1480.88,nonwin2.png
25,2,5,2,1,1,1572.41,nonwin11.png
25,2,6,1,2,1,1679.82,nonwin2_1.png
25,2,7,1,2,1,1291.38,nonwex2.png
25,2,8,1,2,1,879.09,nonwex4.png
25,2,9,2,2,1,2402.68,nonwex1.png
25,2,10,2,1,1,958.17,nonwex7.png
25,2,11,1,2,1,969.92,nonwin2_8.png
25,2,12,2,2,1,1597.33,nonwex12.png
25,2,13,1,2,1,968.87,nonwex2_6.png
25,2,14,1,1,1,676.43,nonwex2_5.png
25,2,15,2,1,1,1864.14,nonwin2_6.png
25,2,16,2,2,1,1867.55,nonwin9.png
25,2,17,2,2,1,1455.21,nonwex10.png
25,2,18,1,1,1,1170.85,nonwin8.png
25,2,19,2,2,1,1854.25,nonwin2_9.png
25,2,20,1,1,1,1649.66,nonwex2_8.png
25,2,21,1,1,1,1309.28,nonwin2_2.png
25,2,22,2,1,1,1217.2,nonwex9.png
25,2,23,1,2,1,1188.44,nonwex2_11.png
25,2,24,1,2,1,856.1,nonwin2_7.png
25,2,25,2,1,1,1387.88,nonwex5.png
25,2,26,1,1,1,911.26,nonwin6.png
25,2,27,1,1,1,1538.97,nonwin2_11.png
25,2,28,1,1,1,1078.28,nonwin7.png
25,2,29,2,1,1,2490.12,nonwex2_3.png
25,2,30,2,1,1,2037.67,nonwex2_1.png
25,2,31,2,1,1,1009.02,nonwex2_12.png
25,2,32,2,2,1,764.61,nonwin2_3.png
25,2,33,1,2,1,1248.17,nonwex2_7.png
25,2,34,2,2,1,1099.75,nonwin2_10.png
25,2,35,1,2,1,935.54,nonwin12.png
25,2,36,2,1,1,1331.03,nonwin2_12.png
25,2,37,1,1,1,1982.73,nonwin1.png
25,2,38,2,1,1,1018.04,nonwin5.png
25,2,39,2,1,1,1093.82,nonwex2_10.png
25,2,40,1,1,1,1297.42,nonwex3.png
25,2,41,1,2,1,1124.7,nonwex8.png
25,2,42,2,2,1,960.43,nonwin4.png
25,2,43,1,2,1,828.14,nonwin2_4.png
25,2,44,2,2,1,687.74,nonwex2_4.png
25,2,45,2,2,1,1643.29,nonwex2_2.png
25,2,46,2,2,1,1726.8,nonwin2_5.png
25,2,47,2,2,1,1554.15,nonwin10.png
25,2,48,1,2,1,901.89,nonwex6.png
26,2,1,2,2,1,950.48,nonwex2_2.png
26,2,2,1,2,1,831.84,nonwex2_11.png
26,2,3,2,1,1,1041.05,nonwex6.png
26,2,4,2,1,1,858.63,nonwin2_4.png
26,2,5,2,2,1,1156.05,nonwex4.png
26,2,6,2,1,1,2357.24,nonwin8.png
26,2,7,2,1,1,1758.61,nonwin2_1.png
26,2,8,2,2,1,944.28,nonwex11.png
26,2,9,1,2,1,1809.38,nonwin9.png
26,2,10,2,2,1,1355,nonwex2_6.png
26,2,11,1,1,1,884.32,nonwin4.png
26,2,12,2,2,1,1829.81,nonwex2_10.png
26,2,13,1,1,1,983.01,nonwex2_9.png
26,2,14,2,2,1,1208.47,nonwex1.png
26,2,15,2,1,1,1145.93,nonwin12.png
26,2,16,1,2,1,1531.25,nonwex7.png
26,2,17,1,0,0,0,nonwex2_8.png
26,2,18,2,2,1,1022.13,nonwin2_3.png
26,2,19,1,2,1,1375.55,nonwex2_1.png
26,2,20,1,2,1,2192.85,nonwex2_12.png
26,2,21,1,1,1,2218.18,nonwex8.png
26,2,22,1,2,1,1651.67,nonwex2_3.png
26,2,23,1,1,1,2581.02,nonwin1.png
26,2,24,1,1,1,1166.28,nonwin2.png
26,2,25,1,2,1,1303.75,nonwex2.png
26,2,26,2,2,1,1240.96,nonwin3.png
26,2,27,1,2,1,2138.63,nonwex3.png
26,2,28,2,2,1,2123.95,nonwin2_9.png
26,2,29,2,1,1,1909.33,nonwin2_5.png
26,2,30,1,2,1,1862.73,nonwin2_11.png
26,2,31,1,2,1,1007.92,nonwin11.png
26,2,32,2,2,1,2017.58,nonwin5.png
26,2,33,2,2,1,1370.87,nonwin2_8.png
26,2,34,1,2,1,2524.17,nonwex10.png
26,2,35,1,1,1,1149.68,nonwex2_5.png
26,2,36,1,1,1,855.09,nonwin2_7.png
26,2,37,2,1,1,1184.41,nonwex12.png
26,2,38,1,0,0,0,nonwex9.png
26,2,39,2,2,1,1579.11,nonwex2_4.png
26,2,40,2,1,1,1012.57,nonwin7.png
26,2,41,2,1,1,2037.92,nonwin10.png
26,2,42,2,1,1,1415.41,nonwin2_10.png
26,2,43,1,1,1,1248.62,nonwex5.png
26,2,44,2,0,0,0,nonwex2_7.png
26,2,45,2,2,1,1427.55,nonwin2_2.png
26,2,46,1,1,1,1420.98,nonwin2_12.png
26,2,47,1,1,1,1086.3,nonwin6.png
26,2,48,1,1,1,2095.74,nonwin2_6.png
27,2,1,1,2,1,866.86,nonwin2_8.png
27,2,2,2,2,1,1434.97,nonwin2_6.png
27,2,3,2,1,1,1050.98,nonwin4.png
27,2,4,1,1,1,1050.97,nonwex2_10.png
27,2,5,1,2,1,938.97,nonwin2_5.png
27,2,6,2,1,1,1450.94,nonwex9.png
27,2,7,2,2,1,1162.98,nonwex2_3.png
27,2,8,1,1,1,1096.31,nonwin2_1.png
27,2,9,2,2,1,1125.52,nonwex10.png
27,2,10,2,2,1,1005.57,nonwin1.png
27,2,11,2,1,1,898.96,nonwex3.png
27,2,12,2,2,1,1221.57,nonwin2_11.png
27,2,13,1,1,1,837.6,nonwin2_2.png
27,2,14,1,1,1,893.45,nonwex2_2.png
27,2,15,1,1,1,1021.62,nonwin2_9.png
27,2,16,1,2,1,1093.54,nonwin5.png
27,2,17,2,2,1,1173.54,nonwex7.png
27,2,18,2,2,1,877.63,nonwex2.png
27,2,19,2,2,1,1066.87,nonwex2_1.png
27,2,20,1,2,1,1178.96,nonwin2_3.png
27,2,21,2,1,1,992.16,nonwin11.png
27,2,22,1,2,1,962.94,nonwex2_4.png
27,2,23,2,2,1,1058.96,nonwin2_7.png
27,2,24,2,2,1,866.87,nonwex2_12.png
27,2,25,2,1,1,1130.96,nonwin2.png
27,2,26,1,1,1,1242.95,nonwex4.png
27,2,27,1,2,1,954.97,nonwin7.png
27,2,28,2,1,1,1194.97,nonwex2_9.png
27,2,29,1,2,1,1272.2,nonwin2_10.png
27,2,30,2,1,1,1338.96,nonwex5.png
27,2,31,2,1,1,1118.08,nonwin6.png
27,2,32,1,1,1,1002.94,nonwex1.png
27,2,33,1,2,1,842.96,nonwin2_4.png
27,2,34,2,1,1,1218.96,nonwex2_8.png
27,2,35,1,1,1,946.87,nonwex6.png
27,2,36,2,2,1,970.96,nonwin2_12.png
27,2,37,1,2,1,896.29,nonwin10.png
27,2,38,1,2,1,896.15,nonwex11.png
27,2,39,1,2,1,925.53,nonwin3.png
27,2,40,2,2,1,914.97,nonwin9.png
27,2,41,2,1,1,930.96,nonwex2_5.png
27,2,42,1,2,1,1152.3,nonwex2_7.png
27,2,43,1,1,1,954.97,nonwex2_6.png
27,2,44,2,2,1,1202.96,nonwex2_11.png
27,2,45,1,2,1,922.86,nonwin8.png
27,2,46,1,2,1,882.95,nonwex12.png
27,2,47,2,1,1,1122.96,nonwex8.png
27,2,48,1,2,1,962.96,nonwin12.png
28,2,1,2,1,1,792.19,nonwin2_2.png
28,2,2,2,2,1,1112.31,nonwin2_4.png
28,2,3,1,1,1,1024.32,nonwex1.png
28,2,4,1,2,1,1160.16,nonwex5.png
28,2,5,2,2,1,1000.19,nonwin2_1.png
28,2,6,2,1,1,1037.62,nonwin7.png
28,2,7,1,1,1,1184.21,nonwin3.png
28,2,8,2,2,1,888.28,nonwin1.png
28,2,9,2,2,1,1080.21,nonwin2_11.png
28,2,10,1,1,1,984.21,nonwin2_5.png
28,2,11,2,1,1,1280.17,nonwin6.png
28,2,12,1,1,1,824.32,nonwex12.png
28,2,13,2,2,1,944.28,nonwex2_8.png
28,2,14,1,1,1,778.96,nonwin9.png
28,2,15,2,1,1,730.95,nonwin12.png
28,2,16,2,1,1,1216.31,nonwex3.png
28,2,17,1,2,1,936.24,nonwin2_9.png
28,2,18,1,1,1,1328.29,nonwex7.png
28,2,19,2,2,1,944.29,nonwin2.png
28,2,20,2,1,1,832.28,nonwex2.png
28,2,21,2,2,1,768.28,nonwin2_8.png
28,2,22,2,1,1,1138.97,nonwex8.png
28,2,23,1,1,1,1338.95,nonwin10.png
28,2,24,1,2,1,1066.87,nonwex2_10.png
28,2,25,2,1,1,1066.87,nonwex2_9.png
28,2,26,1,1,1,714.86,nonwin4.png
28,2,27,1,2,1,1170.96,nonwin11.png
28,2,28,2,2,1,1026.87,nonwex2_11.png
28,2,29,2,2,1,1229.61,nonwin8.png
28,2,30,1,1,1,1093.63,nonwin5.png
28,2,31,2,1,1,1197.58,nonwex11.png
28,2,32,1,1,1,1173.55,nonwin2_3.png
28,2,33,1,2,1,893.52,nonwex2_3.png
28,2,34,1,2,1,1189.62,nonwin2_10.png
28,2,35,2,2,1,1085.61,nonwex2_5.png
28,2,36,1,2,1,946.85,nonwex2_4.png
28,2,37,1,2,1,829.64,nonwex2_12.png
28,2,38,2,1,1,1093.55,nonwin2_7.png
28,2,39,1,2,1,1013.55,nonwex2_1.png
28,2,40,2,1,1,941.63,nonwex4.png
28,2,41,1,1,1,893.47,nonwex9.png
28,2,42,2,2,1,997.58,nonwex2_7.png
28,2,43,2,2,1,970.84,nonwex2_6.png
28,2,44,1,2,1,1474.91,nonwin2_6.png
28,2,45,2,2,1,1386.88,nonwex6.png
28,2,46,1,1,1,816.31,nonwin2_12.png
28,2,47,1,2,1,898.95,nonwex2_2.png
28,2,48,1,2,1,786.87,nonwex10.png
29,2,1,2,1,1,1613.77,nonwex5.png
29,2,2,1,2,1,1026.1,nonwin8.png
29,2,3,1,1,1,1342.43,nonwin6.png
29,2,4,1,2,1,1522.77,nonwin2_2.png
29,2,5,1,2,1,1487.19,nonwex8.png
29,2,6,1,2,1,955.49,nonwex2_6.png
29,2,7,2,1,1,975.92,nonwin2_10.png
29,2,8,2,2,1,1564.27,nonwex2_3.png
29,2,9,2,2,1,1448.61,nonwex2_4.png
29,2,10,2,2,1,789.04,nonwex2_2.png
29,2,11,1,1,1,1065.4,nonwin12.png
29,2,12,2,2,1,1485.76,nonwex2_10.png
29,2,13,2,2,1,1265.88,nonwin11.png
29,2,14,2,2,1,1062.44,nonwin2_6.png
29,2,15,1,2,1,1218.84,nonwex2_5.png
29,2,16,1,2,1,1263.25,nonwex2_7.png
29,2,17,2,2,1,1163.52,nonwin2_5.png
29,2,18,2,2,1,1311.98,nonwin2_3.png
29,2,19,1,2,1,1228.25,nonwin7.png
29,2,20,1,2,1,1256.61,nonwex2_9.png
29,2,21,1,1,1,932.97,nonwex4.png
29,2,22,2,2,1,1297.39,nonwex9.png
29,2,23,1,2,1,1109.73,nonwin1.png
29,2,24,1,2,1,1034.07,nonwin2_8.png
29,2,25,2,2,1,1014.45,nonwex1.png
29,2,26,1,2,1,978.82,nonwex2_8.png
29,2,27,1,2,1,839.24,nonwex6.png
29,2,28,1,1,1,1051.32,nonwex3.png
29,2,29,1,2,1,1191.94,nonwin2_11.png
29,2,30,2,2,1,1492.35,nonwex10.png
29,2,31,2,2,1,976.71,nonwin4.png
29,2,32,1,2,1,1148.99,nonwex2.png
29,2,33,2,2,1,729.4,nonwin2_9.png
29,2,34,1,1,1,1053.72,nonwin2_1.png
29,2,35,2,2,1,1346.12,nonwex2_12.png
29,2,36,1,2,1,1814.45,nonwex11.png
29,2,37,2,2,1,1074.89,nonwin2_12.png
29,2,38,1,2,1,767.18,nonwex2_11.png
29,2,39,1,2,1,955.54,nonwin2_7.png
29,2,40,2,2,1,879.93,nonwex12.png
29,2,41,1,2,1,1316.27,nonwin2_4.png
29,2,42,2,2,1,1864.71,nonwex2_1.png
29,2,43,2,2,1,1244.87,nonwin3.png
29,2,44,2,2,1,1041.45,nonwin9.png
29,2,45,1,2,1,893.82,nonwin2.png
29,2,46,2,2,1,1242.16,nonwin5.png
29,2,47,2,2,1,1678.49,nonwex7.png
29,2,48,2,1,1,1322.89,nonwin10.png
30,2,1,1,1,1,1097.68,nonwin2_12.png
30,2,2,1,1,1,518.03,nonwin2_10.png
30,2,3,2,2,1,730.37,nonwin2_1.png
30,2,4,1,1,1,766.82,nonwin5.png
30,2,5,2,1,1,1162.91,nonwex3.png
30,2,6,1,2,1,879.52,nonwex10.png
30,2,7,1,2,1,739.65,nonwex5.png
30,2,8,1,1,1,704.21,nonwin2_5.png
30,2,9,1,1,1,628.62,nonwex2_10.png
30,2,10,2,2,1,1129,nonwex6.png
30,2,11,2,2,1,989.41,nonwex2_5.png
30,2,12,1,2,1,873.71,nonwex2_12.png
30,2,13,1,1,1,1214.06,nonwex2_1.png
30,2,14,1,1,1,818.51,nonwin2_6.png
30,2,15,2,2,1,886.88,nonwex4.png
30,2,16,1,2,1,827.17,nonwin2_3.png
30,2,17,2,2,1,951.63,nonwin2.png
30,2,18,2,2,1,851.91,nonwin7.png
30,2,19,2,2,1,720.31,nonwin8.png
30,2,20,1,2,1,1084.65,nonwex12.png
30,2,21,2,2,1,1649.02,nonwin2_4.png
30,2,22,2,1,1,1149.25,nonwex2_6.png
30,2,23,2,2,1,897.77,nonwin1.png
30,2,24,1,1,1,846.17,nonwex9.png
30,2,25,2,2,1,1522.52,nonwex2_7.png
30,2,26,2,1,1,1006.9,nonwin2_8.png
30,2,27,1,1,1,859.32,nonwex7.png
30,2,28,1,2,1,815.65,nonwin11.png
30,2,29,2,2,1,1932.01,nonwex2.png
30,2,30,1,2,1,896.43,nonwin4.png
30,2,31,1,0,0,0,nonwex2_3.png
30,2,32,1,2,1,921.1,nonwex2_2.png
30,2,33,1,1,1,845.54,nonwex1.png
30,2,34,2,2,1,977.89,nonwex2_11.png
30,2,35,2,2,1,950.24,nonwin6.png
30,2,36,1,1,1,1250.56,nonwin10.png
30,2,37,2,2,1,918.75,nonwex2_8.png
30,2,38,2,2,1,1315.31,nonwin2_11.png
30,2,39,2,2,1,1319.7,nonwin12.png
30,2,40,2,2,1,1156.06,nonwex8.png
30,2,41,1,2,1,1112.45,nonwin9.png
30,2,42,2,2,1,1028.79,nonwin2_7.png
30,2,43,1,0,0,0,nonwin2_9.png
30,2,44,1,1,1,1349.57,nonwin3.png
30,2,45,2,2,1,1604.65,nonwin2_2.png
30,2,46,2,2,1,1953.03,nonwex2_9.png
30,2,47,2,2,1,1021.3,nonwex11.png
30,2,48,1,2,1,865.72,nonwex2_4.png